time	DeviceName	AccX(g)	AccY(g)	AccZ(g)	AsX(°/s)	AsY(°/s)	AsZ(°/s)	AngleX(°)	AngleY(°)	AngleZ(°)	HX(uT)	HY(uT)	HZ(uT)	Q0()	Q1()	Q2()	Q3()	Temperature(°C)	Version()	Battery level(%)
2025-9-22 8:46:27.96	WT901BLE68(66B8CDDB35E6)	0.000	0.006	1.035	0.000	0.000	0.000	0.18	0.15	-58.91	-46.483	27.425	-72.100	0.87070	0.00201	0.00034	-0.49173	20.4	13113	75
2025-9-22 8:46:27.104	WT901BLE68(76B4B30218CB)	-0.011	-0.018	1.017	0.000	0.000	0.000	-2.70	0.21	82.52	-10.033	-72.000	-133.392	0.75159	-0.00793	-0.00256	0.65948	18.2	13113	100
2025-9-22 8:46:27.104	WT901BLE68(76B4B30218CB)	-0.011	-0.018	1.017	0.000	0.000	0.000	-2.70	0.21	82.52	-10.033	-72.000	-133.392	0.75159	-0.00793	-0.00256	0.65948	18.2	13113	100
2025-9-22 8:46:27.104	WT901BLE68(76B4B30218CB)	-0.011	-0.018	1.017	0.000	0.000	0.000	-2.70	0.21	82.52	-10.033	-72.000	-133.392	0.75159	-0.00793	-0.00256	0.65948	18.2	13113	100
2025-9-22 8:46:27.104	WT901BLE68(76B4B30218CB)	-0.011	-0.019	1.017	0.000	0.000	0.000	-2.70	0.21	82.52	-10.033	-72.000	-133.392	0.75159	-0.00793	-0.00256	0.65948	18.2	13113	100
2025-9-22 8:46:27.104	WT901BLE68(76B4B30218CB)	-0.011	-0.019	1.017	0.000	0.000	0.000	-2.70	0.21	82.52	-10.033	-72.000	-133.392	0.75159	-0.00793	-0.00256	0.65948	18.2	13113	100
2025-9-22 8:46:27.104	WT901BLE68(76B4B30218CB)	-0.011	-0.019	1.017	0.000	0.000	0.000	-2.70	0.21	82.52	-10.033	-72.000	-133.392	0.75159	-0.00793	-0.00256	0.65948	18.2	13113	100
2025-9-22 8:46:27.104	WT901BLE68(76B4B30218CB)	-0.009	-0.019	1.017	0.000	0.000	0.000	-2.70	0.21	82.52	-10.033	-72.000	-133.392	0.75159	-0.00793	-0.00256	0.65948	18.2	13113	100
2025-9-22 8:46:27.104	WT901BLE68(76B4B30218CB)	-0.009	-0.017	1.020	0.000	0.000	0.000	-2.70	0.21	82.52	-10.033	-72.000	-133.392	0.75159	-0.00793	-0.00256	0.65948	18.2	13113	100
2025-9-22 8:46:27.134	WT901BLE68(76B4B30218CB)	-0.009	-0.017	1.020	0.000	0.000	0.000	-2.70	0.21	82.52	-10.033	-72.000	-133.392	0.75159	-0.00793	-0.00256	0.65948	18.2	13113	100
2025-9-22 8:46:27.134	WT901BLE68(76B4B30218CB)	-0.009	-0.017	1.020	0.000	0.000	0.000	-2.70	0.21	82.52	-10.033	-72.000	-133.392	0.75159	-0.00793	-0.00256	0.65948	18.2	13113	100
2025-9-22 8:46:27.134	WT901BLE68(76B4B30218CB)	-0.006	-0.017	1.020	0.000	0.000	0.000	-2.70	0.21	82.52	-10.033	-72.000	-133.392	0.75159	-0.00793	-0.00256	0.65948	18.2	13113	100
2025-9-22 8:46:27.134	WT901BLE68(76B4B30218CB)	-0.006	-0.015	1.017	0.000	0.000	0.000	-2.70	0.21	82.52	-10.033	-72.000	-133.392	0.75159	-0.00793	-0.00256	0.65948	18.2	13113	100
2025-9-22 8:46:27.134	WT901BLE68(76B4B30218CB)	-0.006	-0.015	1.017	0.000	0.000	0.000	-2.70	0.21	82.52	-10.033	-72.000	-133.392	0.75159	-0.00793	-0.00256	0.65948	18.2	13113	100
2025-9-22 8:46:27.134	WT901BLE68(76B4B30218CB)	-0.006	-0.015	1.017	0.000	0.000	0.000	-2.70	0.21	82.52	-10.033	-72.000	-133.392	0.75159	-0.00793	-0.00253	0.65948	18.2	13113	100
2025-9-22 8:46:27.134	WT901BLE68(76B4B30218CB)	-0.003	-0.015	1.017	0.000	0.000	0.000	-2.70	0.21	82.52	-10.033	-72.000	-133.392	0.75159	-0.00793	-0.00253	0.65948	18.2	13113	100
2025-9-22 8:46:27.134	WT901BLE68(76B4B30218CB)	-0.003	-0.013	1.018	0.000	0.000	0.000	-2.70	0.21	82.52	-10.033	-72.000	-133.392	0.75159	-0.00793	-0.00253	0.65948	18.2	13113	100
2025-9-22 8:46:27.156	WT901BLE68(66B8CDDB35E6)	-0.008	0.009	1.033	0.000	0.000	0.000	0.18	0.15	-58.91	-46.483	27.425	-72.100	0.87070	0.00201	0.00034	-0.49173	20.4	13113	75
2025-9-22 8:46:27.163	WT901BLE68(76B4B30218CB)	-0.003	-0.013	1.018	0.000	0.000	0.000	-2.70	0.21	82.52	-10.033	-72.000	-133.392	0.75159	-0.00793	-0.00253	0.65948	18.2	13113	100
2025-9-22 8:46:27.163	WT901BLE68(76B4B30218CB)	-0.003	-0.013	1.018	0.000	0.000	0.000	-2.70	0.21	82.52	-10.033	-72.000	-133.392	0.75159	-0.00793	-0.00253	0.65948	18.2	13113	100
2025-9-22 8:46:27.163	WT901BLE68(76B4B30218CB)	-0.000	-0.013	1.018	0.000	0.000	0.000	-2.70	0.21	82.52	-10.033	-72.000	-133.392	0.75159	-0.00793	-0.00253	0.65948	18.2	13113	100
2025-9-22 8:46:27.163	WT901BLE68(76B4B30218CB)	-0.000	-0.012	1.018	0.000	0.000	0.000	-2.70	0.21	82.52	-10.033	-72.000	-133.392	0.75159	-0.00793	-0.00253	0.65948	18.2	13113	100
2025-9-22 8:46:27.163	WT901BLE68(76B4B30218CB)	-0.000	-0.012	1.018	0.000	0.000	0.000	-2.70	0.21	82.52	-10.033	-72.000	-133.392	0.75159	-0.00793	-0.00253	0.65948	18.2	13113	100
2025-9-22 8:46:27.164	WT901BLE68(76B4B30218CB)	-0.000	-0.012	1.018	0.000	0.000	0.000	-2.70	0.21	82.52	-10.033	-72.000	-133.392	0.75159	-0.00793	-0.00253	0.65948	18.2	13113	100
2025-9-22 8:46:27.164	WT901BLE68(76B4B30218CB)	0.000	-0.012	1.018	0.000	0.000	0.000	-2.70	0.21	82.52	-10.033	-72.000	-133.392	0.75159	-0.00793	-0.00253	0.65948	18.2	13113	100
2025-9-22 8:46:27.164	WT901BLE68(76B4B30218CB)	0.000	-0.014	1.016	0.000	0.000	0.000	-2.70	0.21	82.52	-10.033	-72.000	-133.392	0.75159	-0.00793	-0.00253	0.65948	18.2	13113	100
2025-9-22 8:46:27.224	WT901BLE68(76B4B30218CB)	0.000	-0.014	1.016	0.000	0.000	0.000	-2.70	0.21	82.52	-10.033	-72.000	-133.392	0.75159	-0.00793	-0.00253	0.65948	18.2	13113	100
2025-9-22 8:46:27.224	WT901BLE68(76B4B30218CB)	0.000	-0.014	1.016	0.000	0.000	0.000	-2.70	0.21	82.52	-10.033	-72.000	-133.392	0.75159	-0.00793	-0.00253	0.65948	18.2	13113	100
2025-9-22 8:46:27.224	WT901BLE68(76B4B30218CB)	-0.002	-0.014	1.016	0.000	0.000	0.000	-2.70	0.21	82.52	-10.033	-72.000	-133.392	0.75159	-0.00793	-0.00253	0.65948	18.2	13113	100
2025-9-22 8:46:27.224	WT901BLE68(76B4B30218CB)	-0.002	-0.015	1.018	0.000	0.000	0.000	-2.70	0.21	82.52	-10.033	-72.000	-133.392	0.75159	-0.00793	-0.00253	0.65948	18.2	13113	100
2025-9-22 8:46:27.224	WT901BLE68(76B4B30218CB)	-0.002	-0.015	1.018	0.000	0.000	0.000	-2.70	0.21	82.52	-10.033	-72.000	-133.392	0.75159	-0.00793	-0.00253	0.65948	18.2	13113	100
2025-9-22 8:46:27.224	WT901BLE68(76B4B30218CB)	-0.002	-0.015	1.018	0.000	0.000	0.000	-2.70	0.21	82.52	-10.033	-72.000	-133.392	0.75159	-0.00793	-0.00253	0.65948	18.2	13113	100
2025-9-22 8:46:27.224	WT901BLE68(76B4B30218CB)	-0.006	-0.015	1.018	0.000	0.000	0.000	-2.70	0.21	82.52	-10.033	-72.000	-133.392	0.75159	-0.00793	-0.00253	0.65948	18.2	13113	100
2025-9-22 8:46:27.224	WT901BLE68(76B4B30218CB)	-0.006	-0.018	1.019	0.000	0.000	0.000	-2.70	0.21	82.52	-10.033	-72.000	-133.392	0.75159	-0.00793	-0.00253	0.65948	18.2	13113	100
2025-9-22 8:46:27.253	WT901BLE68(76B4B30218CB)	-0.006	-0.018	1.019	0.000	0.000	0.000	-2.70	0.21	82.52	-10.033	-72.000	-133.392	0.75159	-0.00793	-0.00253	0.65948	18.2	13113	100
2025-9-22 8:46:27.253	WT901BLE68(76B4B30218CB)	-0.009	-0.018	1.019	0.000	0.000	0.000	-2.70	0.21	82.52	-10.033	-72.000	-133.392	0.75159	-0.00793	-0.00253	0.65948	18.2	13113	100
2025-9-22 8:46:27.253	WT901BLE68(76B4B30218CB)	-0.009	-0.019	1.016	0.000	0.000	0.000	-2.70	0.21	82.52	-10.033	-72.000	-133.392	0.75159	-0.00793	-0.00253	0.65948	18.2	13113	100
2025-9-22 8:46:27.253	WT901BLE68(76B4B30218CB)	-0.009	-0.019	1.016	0.000	0.000	0.000	-2.70	0.21	82.52	-10.033	-72.000	-133.392	0.75159	-0.00793	-0.00253	0.65948	18.2	13113	100
2025-9-22 8:46:27.253	WT901BLE68(76B4B30218CB)	-0.009	-0.019	1.016	0.000	0.000	0.000	-2.70	0.21	82.52	-10.033	-72.000	-133.392	0.75159	-0.00793	-0.00253	0.65948	18.2	13113	100
2025-9-22 8:46:27.253	WT901BLE68(76B4B30218CB)	-0.012	-0.019	1.016	0.000	0.000	0.000	-2.70	0.21	82.52	-10.033	-72.000	-133.392	0.75159	-0.00793	-0.00253	0.65948	18.2	13113	100
2025-9-22 8:46:27.253	WT901BLE68(76B4B30218CB)	-0.012	-0.017	1.018	0.000	0.000	0.000	-2.70	0.21	82.52	-10.033	-72.000	-133.392	0.75159	-0.00793	-0.00253	0.65948	18.2	13113	100
2025-9-22 8:46:27.253	WT901BLE68(76B4B30218CB)	-0.012	-0.017	1.018	0.000	0.000	0.000	-2.70	0.21	82.52	-10.033	-72.000	-133.392	0.75159	-0.00793	-0.00253	0.65948	18.2	13113	100
2025-9-22 8:46:27.276	WT901BLE68(66B8CDDB35E6)	0.002	-0.002	1.034	0.000	0.000	0.000	0.18	0.15	-58.91	-46.483	27.425	-72.100	0.87070	0.00201	0.00034	-0.49170	20.4	13113	75
2025-9-22 8:46:27.283	WT901BLE68(76B4B30218CB)	-0.012	-0.017	1.018	0.000	0.000	0.000	-2.70	0.21	82.52	-10.033	-72.000	-133.392	0.75159	-0.00793	-0.00253	0.65948	18.2	13113	100
2025-9-22 8:46:27.283	WT901BLE68(76B4B30218CB)	-0.012	-0.017	1.018	0.000	0.000	0.000	-2.70	0.21	82.52	-10.033	-72.000	-133.392	0.75159	-0.00793	-0.00253	0.65948	18.2	13113	100
2025-9-22 8:46:27.283	WT901BLE68(76B4B30218CB)	-0.012	-0.014	1.019	0.000	0.000	0.000	-2.70	0.21	82.52	-10.033	-72.000	-133.392	0.75159	-0.00793	-0.00253	0.65948	18.2	13113	100
2025-9-22 8:46:27.283	WT901BLE68(76B4B30218CB)	-0.012	-0.014	1.019	0.000	0.000	0.000	-2.70	0.21	82.52	-10.033	-72.000	-133.392	0.75159	-0.00793	-0.00253	0.65948	18.2	13113	100
2025-9-22 8:46:27.283	WT901BLE68(76B4B30218CB)	-0.012	-0.014	1.019	0.000	0.000	0.000	-2.70	0.21	82.52	-10.033	-72.000	-133.392	0.75159	-0.00793	-0.00253	0.65948	18.2	13113	100
2025-9-22 8:46:27.283	WT901BLE68(76B4B30218CB)	-0.011	-0.014	1.019	0.000	0.000	0.000	-2.70	0.21	82.52	-10.033	-72.000	-133.392	0.75159	-0.00793	-0.00253	0.65948	18.2	13113	100
2025-9-22 8:46:27.283	WT901BLE68(76B4B30218CB)	-0.011	-0.013	1.016	0.000	0.000	0.000	-2.70	0.21	82.52	-10.033	-72.000	-133.392	0.75159	-0.00793	-0.00253	0.65948	18.2	13113	100
2025-9-22 8:46:27.283	WT901BLE68(76B4B30218CB)	-0.011	-0.013	1.016	0.000	0.000	0.000	-2.70	0.21	82.52	-10.033	-72.000	-133.392	0.75159	-0.00793	-0.00253	0.65948	18.2	13113	100
2025-9-22 8:46:27.346	WT901BLE68(76B4B30218CB)	-0.011	-0.013	1.016	0.000	0.000	0.000	-2.70	0.21	82.52	-10.033	-72.000	-133.392	0.75159	-0.00793	-0.00253	0.65948	18.2	13113	100
2025-9-22 8:46:27.346	WT901BLE68(76B4B30218CB)	-0.008	-0.013	1.016	0.000	0.000	0.000	-2.70	0.21	82.52	-10.033	-72.000	-133.392	0.75159	-0.00793	-0.00253	0.65948	18.2	13113	100
2025-9-22 8:46:27.346	WT901BLE68(76B4B30218CB)	-0.008	-0.013	1.018	0.000	0.000	0.000	-2.70	0.21	82.52	-10.033	-72.000	-133.392	0.75159	-0.00793	-0.00253	0.65948	18.2	13113	100
2025-9-22 8:46:27.346	WT901BLE68(76B4B30218CB)	-0.008	-0.013	1.018	0.000	0.000	0.000	-2.70	0.21	82.52	-10.033	-72.000	-133.392	0.75159	-0.00793	-0.00253	0.65948	18.2	13113	100
2025-9-22 8:46:27.346	WT901BLE68(76B4B30218CB)	-0.008	-0.013	1.018	0.000	0.000	0.000	-2.70	0.21	82.52	-10.033	-72.000	-133.392	0.75159	-0.00793	-0.00253	0.65948	18.2	13113	100
2025-9-22 8:46:27.346	WT901BLE68(76B4B30218CB)	-0.005	-0.013	1.018	0.000	0.000	0.000	-2.70	0.21	82.52	-10.033	-72.000	-133.392	0.75159	-0.00793	-0.00253	0.65948	18.2	13113	100
2025-9-22 8:46:27.346	WT901BLE68(76B4B30218CB)	-0.005	-0.015	1.018	0.000	0.000	0.000	-2.70	0.21	82.52	-10.033	-72.000	-133.392	0.75159	-0.00793	-0.00253	0.65948	18.2	13113	100
2025-9-22 8:46:27.346	WT901BLE68(76B4B30218CB)	-0.005	-0.015	1.018	0.000	0.000	0.000	-2.70	0.21	82.52	-9.625	-71.267	-133.567	0.75159	-0.00793	-0.00253	0.65948	18.2	13113	100
2025-9-22 8:46:27.365	WT901BLE68(66B8CDDB35E6)	-0.007	0.006	1.036	0.000	0.000	0.000	0.18	0.15	-58.91	-46.483	27.425	-72.100	0.87070	0.00201	0.00034	-0.49170	20.4	13113	75
2025-9-22 8:46:27.373	WT901BLE68(76B4B30218CB)	-0.005	-0.015	1.018	0.000	0.000	0.000	-2.70	0.21	82.52	-9.625	-71.267	-133.567	0.75159	-0.00793	-0.00253	0.65948	18.2	13113	100
2025-9-22 8:46:27.374	WT901BLE68(76B4B30218CB)	-0.002	-0.015	1.018	0.000	0.000	0.000	-2.70	0.21	82.52	-9.625	-71.267	-133.567	0.75159	-0.00793	-0.00253	0.65948	18.2	13113	100
2025-9-22 8:46:27.374	WT901BLE68(76B4B30218CB)	-0.002	-0.017	1.016	0.000	0.000	0.000	-2.70	0.21	82.52	-9.625	-71.267	-133.567	0.75159	-0.00793	-0.00253	0.65948	18.2	13113	100
2025-9-22 8:46:27.374	WT901BLE68(76B4B30218CB)	-0.002	-0.017	1.016	0.000	0.000	0.000	-2.70	0.21	82.52	-9.625	-71.267	-133.567	0.75159	-0.00793	-0.00253	0.65948	18.2	13113	100
2025-9-22 8:46:27.374	WT901BLE68(76B4B30218CB)	-0.002	-0.017	1.016	0.000	0.000	0.000	-2.70	0.21	82.52	-9.625	-71.267	-133.567	0.75159	-0.00793	-0.00253	0.65948	18.2	13113	100
2025-9-22 8:46:27.374	WT901BLE68(76B4B30218CB)	-0.002	-0.017	1.016	0.000	0.000	0.000	-2.70	0.21	82.52	-9.625	-71.267	-133.567	0.75159	-0.00793	-0.00253	0.65948	18.2	13113	100
2025-9-22 8:46:27.374	WT901BLE68(76B4B30218CB)	-0.002	-0.018	1.019	0.000	0.000	0.000	-2.70	0.21	82.52	-9.625	-71.267	-133.567	0.75159	-0.00793	-0.00253	0.65948	18.2	13113	100
2025-9-22 8:46:27.374	WT901BLE68(76B4B30218CB)	-0.002	-0.018	1.019	0.000	0.000	0.000	-2.70	0.21	82.52	-9.625	-71.267	-133.567	0.75159	-0.00793	-0.00253	0.65948	18.2	13113	100
2025-9-22 8:46:27.404	WT901BLE68(76B4B30218CB)	-0.002	-0.018	1.019	0.000	0.000	0.000	-2.70	0.21	82.52	-9.625	-71.267	-133.567	0.75159	-0.00793	-0.00253	0.65948	18.2	13113	100
2025-9-22 8:46:27.404	WT901BLE68(76B4B30218CB)	-0.002	-0.018	1.019	0.000	0.000	0.000	-2.70	0.21	82.52	-9.625	-71.267	-133.567	0.75159	-0.00793	-0.00253	0.65948	18.2	13113	100
2025-9-22 8:46:27.404	WT901BLE68(76B4B30218CB)	-0.002	-0.017	1.018	0.000	0.000	0.000	-2.70	0.21	82.52	-9.625	-71.267	-133.567	0.75159	-0.00793	-0.00253	0.65948	18.2	13113	100
2025-9-22 8:46:27.404	WT901BLE68(76B4B30218CB)	-0.002	-0.017	1.018	0.000	0.000	0.000	-2.70	0.21	82.52	-9.625	-71.267	-133.567	0.75159	-0.00793	-0.00253	0.65948	18.2	13113	100
2025-9-22 8:46:27.404	WT901BLE68(76B4B30218CB)	-0.002	-0.017	1.018	0.000	0.000	0.000	-2.70	0.21	82.52	-9.625	-71.267	-133.567	0.75159	-0.00793	-0.00253	0.65948	18.2	13113	100
2025-9-22 8:46:27.404	WT901BLE68(76B4B30218CB)	-0.003	-0.017	1.018	0.000	0.000	0.000	-2.70	0.21	82.52	-9.625	-71.267	-133.567	0.75159	-0.00793	-0.00253	0.65948	18.2	13113	100
2025-9-22 8:46:27.404	WT901BLE68(76B4B30218CB)	-0.003	-0.015	1.017	0.000	0.000	0.000	-2.70	0.21	82.52	-9.625	-71.267	-133.567	0.75159	-0.00793	-0.00253	0.65948	18.2	13113	100
2025-9-22 8:46:27.404	WT901BLE68(76B4B30218CB)	-0.003	-0.015	1.017	0.000	0.000	0.000	-2.70	0.21	82.52	-9.625	-71.267	-133.567	0.75159	-0.00793	-0.00253	0.65948	18.2	13113	100
2025-9-22 8:46:27.463	WT901BLE68(76B4B30218CB)	-0.003	-0.015	1.017	0.000	0.000	0.000	-2.70	0.21	82.52	-9.625	-71.267	-133.567	0.75159	-0.00793	-0.00253	0.65948	18.2	13113	100
2025-9-22 8:46:27.463	WT901BLE68(76B4B30218CB)	-0.006	-0.015	1.017	0.000	0.000	0.000	-2.70	0.21	82.52	-9.625	-71.267	-133.567	0.75159	-0.00793	-0.00253	0.65948	18.2	13113	100
2025-9-22 8:46:27.463	WT901BLE68(76B4B30218CB)	-0.006	-0.014	1.019	0.000	0.000	0.000	-2.70	0.21	82.52	-9.625	-71.267	-133.567	0.75159	-0.00793	-0.00253	0.65948	18.2	13113	100
2025-9-22 8:46:27.463	WT901BLE68(76B4B30218CB)	-0.006	-0.014	1.019	0.000	0.000	0.000	-2.70	0.21	82.52	-9.625	-71.267	-133.567	0.75159	-0.00793	-0.00253	0.65948	18.2	13113	100
2025-9-22 8:46:27.463	WT901BLE68(76B4B30218CB)	-0.006	-0.014	1.019	0.000	0.000	0.000	-2.70	0.21	82.52	-9.625	-71.267	-133.567	0.75159	-0.00793	-0.00253	0.65948	18.2	13113	100
2025-9-22 8:46:27.463	WT901BLE68(76B4B30218CB)	-0.009	-0.014	1.019	0.000	0.000	0.000	-2.70	0.21	82.52	-9.625	-71.267	-133.567	0.75159	-0.00793	-0.00253	0.65948	18.2	13113	100
2025-9-22 8:46:27.463	WT901BLE68(76B4B30218CB)	-0.009	-0.014	1.017	0.000	0.000	0.000	-2.70	0.21	82.52	-9.625	-71.267	-133.567	0.75159	-0.00793	-0.00253	0.65948	18.2	13113	100
2025-9-22 8:46:27.463	WT901BLE68(76B4B30218CB)	-0.009	-0.014	1.017	0.000	0.000	0.000	-2.70	0.21	82.52	-9.625	-71.267	-133.567	0.75159	-0.00793	-0.00253	0.65948	18.2	13113	100
2025-9-22 8:46:27.485	WT901BLE68(66B8CDDB35E6)	0.001	0.002	1.035	0.000	0.000	0.000	0.18	0.15	-58.91	-46.708	27.683	-71.925	0.87070	0.00201	0.00034	-0.49170	20.4	13113	75
2025-9-22 8:46:27.494	WT901BLE68(76B4B30218CB)	-0.009	-0.014	1.017	0.000	0.000	0.000	-2.70	0.21	82.52	-9.625	-71.267	-133.567	0.75159	-0.00793	-0.00253	0.65948	18.2	13113	100
2025-9-22 8:46:27.494	WT901BLE68(76B4B30218CB)	-0.010	-0.014	1.017	0.000	0.000	0.000	-2.70	0.21	82.52	-9.625	-71.267	-133.567	0.75159	-0.00793	-0.00253	0.65948	18.2	13113	100
2025-9-22 8:46:27.494	WT901BLE68(76B4B30218CB)	-0.010	-0.014	1.017	0.000	0.000	0.000	-2.70	0.21	82.52	-9.625	-71.267	-133.567	0.75159	-0.00793	-0.00253	0.65948	18.2	13113	100
2025-9-22 8:46:27.494	WT901BLE68(76B4B30218CB)	-0.010	-0.014	1.017	0.000	0.000	0.000	-2.70	0.21	82.52	-9.625	-71.267	-133.567	0.75159	-0.00793	-0.00253	0.65948	18.2	13113	100
2025-9-22 8:46:27.494	WT901BLE68(76B4B30218CB)	-0.010	-0.014	1.017	0.000	0.000	0.000	-2.70	0.21	82.52	-9.625	-71.267	-133.567	0.75159	-0.00793	-0.00253	0.65948	18.2	13113	100
2025-9-22 8:46:27.494	WT901BLE68(76B4B30218CB)	-0.011	-0.014	1.017	0.000	0.000	0.000	-2.70	0.21	82.52	-9.625	-71.267	-133.567	0.75159	-0.00793	-0.00253	0.65948	18.2	13113	100
2025-9-22 8:46:27.494	WT901BLE68(76B4B30218CB)	-0.011	-0.016	1.019	0.000	0.000	0.000	-2.70	0.21	82.52	-9.625	-71.267	-133.567	0.75159	-0.00793	-0.00253	0.65948	18.2	13113	100
2025-9-22 8:46:27.494	WT901BLE68(76B4B30218CB)	-0.011	-0.016	1.019	0.000	0.000	0.000	-2.70	0.21	82.52	-9.625	-71.267	-133.567	0.75159	-0.00793	-0.00253	0.65948	18.2	13113	100
2025-9-22 8:46:27.523	WT901BLE68(76B4B30218CB)	-0.011	-0.016	1.019	0.000	0.000	0.000	-2.70	0.21	82.52	-9.625	-71.267	-133.567	0.75159	-0.00793	-0.00253	0.65948	18.2	13113	100
2025-9-22 8:46:27.523	WT901BLE68(76B4B30218CB)	-0.010	-0.016	1.019	0.000	0.000	0.000	-2.70	0.21	82.52	-9.625	-71.267	-133.567	0.75159	-0.00793	-0.00253	0.65948	18.2	13113	100
2025-9-22 8:46:27.523	WT901BLE68(76B4B30218CB)	-0.010	-0.017	1.016	0.000	0.000	0.000	-2.70	0.21	82.52	-9.625	-71.267	-133.567	0.75159	-0.00793	-0.00253	0.65948	18.2	13113	100
2025-9-22 8:46:27.523	WT901BLE68(76B4B30218CB)	-0.010	-0.017	1.016	0.000	0.000	0.000	-2.70	0.21	82.52	-9.625	-71.267	-133.567	0.75159	-0.00790	-0.00253	0.65948	18.2	13113	100
2025-9-22 8:46:27.523	WT901BLE68(76B4B30218CB)	-0.010	-0.017	1.016	0.000	0.000	0.000	-2.70	0.21	82.52	-9.625	-71.267	-133.567	0.75159	-0.00790	-0.00253	0.65948	18.2	13113	100
2025-9-22 8:46:27.523	WT901BLE68(76B4B30218CB)	-0.008	-0.017	1.016	0.000	0.000	0.000	-2.70	0.21	82.52	-9.625	-71.267	-133.567	0.75159	-0.00790	-0.00253	0.65948	18.2	13113	100
2025-9-22 8:46:27.523	WT901BLE68(76B4B30218CB)	-0.008	-0.016	1.017	0.000	0.000	0.000	-2.70	0.21	82.52	-9.625	-71.267	-133.567	0.75159	-0.00790	-0.00253	0.65948	18.2	13113	100
2025-9-22 8:46:27.523	WT901BLE68(76B4B30218CB)	-0.008	-0.016	1.017	0.000	0.000	0.000	-2.70	0.21	82.52	-9.625	-71.267	-133.567	0.75159	-0.00790	-0.00253	0.65948	18.2	13113	100
2025-9-22 8:46:27.575	WT901BLE68(66B8CDDB35E6)	-0.005	0.004	1.034	0.000	0.000	0.000	0.18	0.15	-58.91	-46.708	27.683	-71.925	0.87070	0.00201	0.00034	-0.49170	20.4	13113	75
2025-9-22 8:46:27.584	WT901BLE68(76B4B30218CB)	-0.008	-0.016	1.017	0.000	0.000	0.000	-2.70	0.21	82.52	-9.625	-71.267	-133.567	0.75159	-0.00790	-0.00253	0.65948	18.2	13113	100
2025-9-22 8:46:27.584	WT901BLE68(76B4B30218CB)	-0.005	-0.016	1.017	0.000	0.000	0.000	-2.70	0.21	82.52	-9.625	-71.267	-133.567	0.75159	-0.00790	-0.00253	0.65948	18.2	13113	100
2025-9-22 8:46:27.584	WT901BLE68(76B4B30218CB)	-0.005	-0.015	1.019	0.000	0.000	0.000	-2.70	0.21	82.52	-9.625	-71.267	-133.567	0.75159	-0.00790	-0.00253	0.65948	18.2	13113	100
2025-9-22 8:46:27.584	WT901BLE68(76B4B30218CB)	-0.005	-0.015	1.019	0.000	0.000	0.000	-2.70	0.21	82.52	-9.625	-71.267	-133.567	0.75159	-0.00790	-0.00253	0.65948	18.2	13113	100
2025-9-22 8:46:27.584	WT901BLE68(76B4B30218CB)	-0.005	-0.015	1.019	0.000	0.000	0.000	-2.70	0.21	82.52	-9.625	-71.267	-133.567	0.75159	-0.00790	-0.00253	0.65948	18.2	13113	100
2025-9-22 8:46:27.584	WT901BLE68(76B4B30218CB)	-0.002	-0.015	1.019	0.000	0.000	0.000	-2.70	0.21	82.52	-9.625	-71.267	-133.567	0.75159	-0.00790	-0.00253	0.65948	18.2	13113	100
2025-9-22 8:46:27.584	WT901BLE68(76B4B30218CB)	-0.002	-0.015	1.017	0.000	0.000	0.000	-2.70	0.21	82.52	-9.625	-71.267	-133.567	0.75159	-0.00790	-0.00253	0.65948	18.2	13113	100
2025-9-22 8:46:27.584	WT901BLE68(76B4B30218CB)	-0.002	-0.015	1.017	0.000	0.000	0.000	-2.70	0.21	82.52	-9.625	-71.267	-133.567	0.75159	-0.00790	-0.00253	0.65948	18.2	13113	100
2025-9-22 8:46:27.616	WT901BLE68(76B4B30218CB)	-0.002	-0.015	1.017	0.000	0.000	0.000	-2.70	0.21	82.52	-9.625	-71.267	-133.567	0.75159	-0.00790	-0.00253	0.65948	18.2	13113	100
2025-9-22 8:46:27.616	WT901BLE68(76B4B30218CB)	-0.001	-0.015	1.017	0.000	0.000	0.000	-2.70	0.21	82.52	-9.625	-71.267	-133.567	0.75159	-0.00790	-0.00253	0.65948	18.2	13113	100
2025-9-22 8:46:27.616	WT901BLE68(76B4B30218CB)	-0.001	-0.014	1.017	0.000	0.000	0.000	-2.70	0.21	82.52	-9.625	-71.267	-133.567	0.75159	-0.00790	-0.00253	0.65948	18.2	13113	100
2025-9-22 8:46:27.616	WT901BLE68(76B4B30218CB)	-0.001	-0.014	1.017	0.000	0.000	0.000	-2.70	0.21	82.52	-9.625	-71.267	-133.567	0.75159	-0.00790	-0.00253	0.65948	18.2	13113	100
2025-9-22 8:46:27.616	WT901BLE68(76B4B30218CB)	-0.001	-0.014	1.017	0.000	0.000	0.000	-2.70	0.21	82.52	-9.625	-71.267	-133.567	0.75159	-0.00790	-0.00253	0.65948	18.2	13113	100
2025-9-22 8:46:27.616	WT901BLE68(76B4B30218CB)	-0.003	-0.014	1.017	0.000	0.000	0.000	-2.70	0.21	82.52	-9.625	-71.267	-133.567	0.75159	-0.00790	-0.00253	0.65948	18.2	13113	100
2025-9-22 8:46:27.616	WT901BLE68(76B4B30218CB)	-0.003	-0.015	1.021	0.000	0.000	0.000	-2.70	0.21	82.52	-9.625	-71.267	-133.567	0.75159	-0.00790	-0.00253	0.65948	18.2	13113	100
2025-9-22 8:46:27.616	WT901BLE68(76B4B30218CB)	-0.003	-0.015	1.021	0.000	0.000	0.000	-2.70	0.21	82.52	-9.625	-71.267	-133.567	0.75159	-0.00790	-0.00253	0.65948	18.2	13113	100
2025-9-22 8:46:27.651	WT901BLE68(76B4B30218CB)	-0.003	-0.015	1.021	0.000	0.000	0.000	-2.70	0.21	82.52	-9.625	-71.267	-133.567	0.75159	-0.00790	-0.00253	0.65948	18.2	13113	100
2025-9-22 8:46:27.651	WT901BLE68(76B4B30218CB)	-0.004	-0.015	1.021	0.000	0.000	0.000	-2.70	0.21	82.52	-9.625	-71.267	-133.567	0.75159	-0.00790	-0.00253	0.65948	18.2	13113	100
2025-9-22 8:46:27.651	WT901BLE68(76B4B30218CB)	-0.004	-0.016	1.016	0.000	0.000	0.000	-2.70	0.21	82.52	-9.625	-71.267	-133.567	0.75159	-0.00790	-0.00253	0.65948	18.2	13113	100
2025-9-22 8:46:27.651	WT901BLE68(76B4B30218CB)	-0.004	-0.016	1.016	0.000	0.000	0.000	-2.70	0.21	82.52	-9.625	-71.267	-133.567	0.75159	-0.00790	-0.00253	0.65948	18.2	13113	100
2025-9-22 8:46:27.651	WT901BLE68(76B4B30218CB)	-0.004	-0.016	1.016	0.000	0.000	0.000	-2.70	0.21	82.52	-9.625	-71.267	-133.567	0.75159	-0.00790	-0.00253	0.65948	18.2	13113	100
2025-9-22 8:46:27.651	WT901BLE68(76B4B30218CB)	-0.007	-0.016	1.016	0.000	0.000	0.000	-2.70	0.21	82.52	-9.625	-71.267	-133.567	0.75159	-0.00790	-0.00253	0.65948	18.2	13113	100
2025-9-22 8:46:27.651	WT901BLE68(76B4B30218CB)	-0.007	-0.018	1.014	0.000	0.000	0.000	-2.70	0.21	82.52	-9.625	-71.267	-133.567	0.75159	-0.00790	-0.00253	0.65948	18.2	13113	100
2025-9-22 8:46:27.651	WT901BLE68(76B4B30218CB)	-0.007	-0.018	1.014	0.000	0.000	0.000	-2.70	0.21	82.52	-9.625	-71.267	-133.567	0.75159	-0.00790	-0.00253	0.65948	18.2	13113	100
2025-9-22 8:46:27.698	WT901BLE68(66B8CDDB35E6)	-0.001	0.001	1.036	0.000	0.000	0.000	0.18	0.15	-58.91	-46.708	27.683	-71.925	0.87070	0.00201	0.00034	-0.49170	20.4	13113	75
2025-9-22 8:46:27.706	WT901BLE68(76B4B30218CB)	-0.007	-0.018	1.014	0.000	0.000	0.000	-2.70	0.21	82.52	-9.625	-71.267	-133.567	0.75159	-0.00790	-0.00253	0.65948	18.2	13113	100
2025-9-22 8:46:27.706	WT901BLE68(76B4B30218CB)	-0.209	-0.018	1.014	0.000	0.000	0.000	-2.70	0.21	82.52	-9.625	-71.267	-133.567	0.75159	-0.00790	-0.00253	0.65948	18.2	13113	100
2025-9-22 8:46:27.706	WT901BLE68(76B4B30218CB)	-0.209	-0.090	0.952	49.316	-54.993	0.610	-2.45	-0.07	82.53	-9.625	-71.267	-133.567	0.75159	-0.00790	-0.00253	0.65948	18.2	13113	100
2025-9-22 8:46:27.706	WT901BLE68(76B4B30218CB)	-0.209	-0.090	0.952	49.316	-54.993	0.610	-2.21	-0.33	82.53	-9.625	-71.267	-133.567	0.75159	-0.00790	-0.00253	0.65948	18.2	13113	100
2025-9-22 8:46:27.706	WT901BLE68(76B4B30218CB)	-0.209	-0.090	0.952	49.316	-54.993	0.610	-1.97	-0.59	82.54	-9.625	-71.267	-133.567	0.75159	-0.00790	-0.00253	0.65948	18.2	13113	100
2025-9-22 8:46:27.706	WT901BLE68(76B4B30218CB)	0.186	-0.090	0.952	49.316	-54.993	0.610	-1.73	-0.86	82.55	-9.625	-71.267	-133.567	0.75159	-0.00790	-0.00253	0.65948	18.2	13113	100
2025-9-22 8:46:27.706	WT901BLE68(76B4B30218CB)	0.186	0.259	1.060	-17.456	11.719	26.489	-1.82	-0.80	82.68	-9.625	-71.267	-133.567	0.75159	-0.00790	-0.00253	0.65948	18.2	13113	100
2025-9-22 8:46:27.706	WT901BLE68(76B4B30218CB)	0.186	0.259	1.060	-17.456	11.719	26.489	-1.91	-0.73	82.81	-9.625	-71.267	-133.567	0.75159	-0.00790	-0.00253	0.65948	18.2	13113	100
2025-9-22 8:46:27.736	WT901BLE68(76B4B30218CB)	0.186	0.259	1.060	-17.456	11.719	26.489	-1.99	-0.67	82.94	-9.625	-71.267	-133.567	0.75159	-0.00790	-0.00253	0.65948	18.2	13113	100
2025-9-22 8:46:27.736	WT901BLE68(76B4B30218CB)	-0.105	0.259	1.060	-17.456	11.719	26.489	-2.07	-0.61	83.07	-9.625	-71.267	-133.567	0.75159	-0.00790	-0.00253	0.65948	18.2	13113	100
2025-9-22 8:46:27.736	WT901BLE68(76B4B30218CB)	-0.105	-0.064	0.940	2.808	-3.784	-14.221	-2.05	-0.63	83.00	-9.625	-71.267	-133.567	0.75159	-0.00790	-0.00253	0.65948	18.2	13113	100
2025-9-22 8:46:27.736	WT901BLE68(76B4B30218CB)	-0.105	-0.064	0.940	2.808	-3.784	-14.221	-2.04	-0.64	82.93	-9.625	-71.267	-133.567	0.75159	-0.00790	-0.00253	0.65948	18.2	13113	100
2025-9-22 8:46:27.736	WT901BLE68(76B4B30218CB)	0.092	-0.064	0.940	2.808	-3.784	-14.221	-2.02	-0.65	82.86	-9.625	-71.267	-133.567	0.75159	-0.00790	-0.00253	0.65948	18.2	13113	100
2025-9-22 8:46:27.736	WT901BLE68(76B4B30218CB)	0.092	-0.005	1.066	-4.211	5.676	5.127	-2.04	-0.63	82.89	-10.592	-72.208	-133.342	0.75159	-0.00790	-0.00253	0.65948	18.2	13113	100
2025-9-22 8:46:27.736	WT901BLE68(76B4B30218CB)	0.092	-0.005	1.066	-4.211	5.676	5.127	-2.05	-0.59	82.91	-10.592	-72.208	-133.342	0.75159	-0.00790	-0.00253	0.65948	18.2	13113	100
2025-9-22 8:46:27.736	WT901BLE68(76B4B30218CB)	0.092	-0.005	1.066	-4.211	5.676	5.127	-2.08	-0.57	82.94	-10.592	-72.208	-133.342	0.75159	-0.00790	-0.00253	0.65948	18.2	13113	100
2025-9-22 8:46:27.757	WT901BLE68(66B8CDDB35E6)	-0.003	0.006	1.038	0.000	0.000	0.000	0.18	0.15	-58.91	-46.708	27.683	-71.925	0.87070	0.00201	0.00034	-0.49170	20.4	13113	75
2025-9-22 8:46:27.795	WT901BLE68(76B4B30218CB)	0.041	-0.005	1.066	-4.211	5.676	5.127	-2.09	-0.53	82.96	-10.592	-72.208	-133.342	0.75159	-0.00790	-0.00253	0.65948	18.2	13113	100
2025-9-22 8:46:27.795	WT901BLE68(76B4B30218CB)	0.041	-0.062	1.028	-14.404	27.771	5.737	-2.16	-0.40	82.99	-10.592	-72.208	-133.342	0.75159	-0.00790	-0.00253	0.65948	18.2	13113	100
2025-9-22 8:46:27.795	WT901BLE68(76B4B30218CB)	0.041	-0.062	1.028	-14.404	27.771	5.737	-2.24	-0.26	83.02	-10.592	-72.208	-133.342	0.75159	-0.00790	-0.00253	0.65948	18.2	13113	100
2025-9-22 8:46:27.795	WT901BLE68(76B4B30218CB)	0.041	-0.062	1.028	-14.404	27.771	5.737	-2.31	-0.13	83.05	-10.592	-72.208	-133.342	0.75159	-0.00790	-0.00253	0.65948	18.2	13113	100
2025-9-22 8:46:27.795	WT901BLE68(76B4B30218CB)	-0.080	-0.062	1.028	-14.404	27.771	5.737	-2.38	0.01	83.07	-10.592	-72.208	-133.342	0.75159	-0.00790	-0.00253	0.65948	18.2	13113	100
2025-9-22 8:46:27.795	WT901BLE68(76B4B30218CB)	-0.080	-0.047	0.950	-9.827	25.757	1.526	-2.43	0.14	83.08	-10.592	-72.208	-133.342	0.75159	-0.00790	-0.00253	0.65948	18.2	13113	100
2025-9-22 8:46:27.795	WT901BLE68(76B4B30218CB)	-0.080	-0.047	0.950	-9.827	25.757	1.526	-2.48	0.26	83.09	-10.592	-72.208	-133.342	0.75159	-0.00790	-0.00253	0.65948	18.2	13113	100
2025-9-22 8:46:27.795	WT901BLE68(76B4B30218CB)	-0.080	-0.047	0.950	-9.827	25.757	1.526	-2.52	0.39	83.10	-10.592	-72.208	-133.342	0.75159	-0.00790	-0.00253	0.65948	18.2	13113	100
2025-9-22 8:46:27.826	WT901BLE68(76B4B30218CB)	0.013	-0.047	0.950	-9.827	25.757	1.526	-2.57	0.52	83.10	-10.592	-72.208	-133.342	0.75159	-0.00790	-0.00253	0.65948	18.2	13113	100
2025-9-22 8:46:27.826	WT901BLE68(76B4B30218CB)	0.013	-0.015	1.023	-8.179	-6.104	1.770	-2.61	0.49	83.11	-10.592	-72.208	-133.342	0.75159	-0.00790	-0.00253	0.65948	18.2	13113	100
2025-9-22 8:46:27.826	WT901BLE68(76B4B30218CB)	0.013	-0.015	1.023	-8.179	-6.104	1.770	-2.65	0.46	83.12	-10.592	-72.208	-133.342	0.75159	-0.00790	-0.00253	0.65948	18.2	13113	100
2025-9-22 8:46:27.826	WT901BLE68(76B4B30218CB)	0.013	-0.015	1.023	-8.179	-6.104	1.770	-2.69	0.42	83.13	-10.592	-72.208	-133.342	0.75159	-0.00790	-0.00253	0.65948	18.2	13113	100
2025-9-22 8:46:27.826	WT901BLE68(76B4B30218CB)	-0.008	-0.015	1.023	-8.179	-6.104	1.770	-2.74	0.39	83.14	-10.592	-72.208	-133.342	0.75159	-0.00790	-0.00253	0.65948	18.2	13113	100
2025-9-22 8:46:27.826	WT901BLE68(76B4B30218CB)	-0.008	-0.013	1.016	0.671	0.000	0.305	-2.73	0.39	83.14	-10.592	-72.208	-133.342	0.75159	-0.00790	-0.00253	0.65948	18.2	13113	100
2025-9-22 8:46:27.826	WT901BLE68(76B4B30218CB)	-0.008	-0.013	1.016	0.671	0.000	0.305	-2.72	0.39	83.14	-10.592	-72.208	-133.342	0.75159	-0.00790	-0.00253	0.65948	18.2	13113	100
2025-9-22 8:46:27.826	WT901BLE68(76B4B30218CB)	-0.008	-0.013	1.016	0.671	0.000	0.305	-2.72	0.39	83.14	-10.592	-72.208	-133.342	0.75159	-0.00790	-0.00253	0.65948	18.2	13113	100
2025-9-22 8:46:27.855	WT901BLE68(76B4B30218CB)	-0.000	-0.013	1.016	0.671	0.000	0.305	-2.72	0.39	83.14	-10.592	-72.208	-133.342	0.75159	-0.00790	-0.00253	0.65948	18.2	13113	100
2025-9-22 8:46:27.855	WT901BLE68(76B4B30218CB)	-0.000	-0.013	1.017	0.916	0.732	0.366	-2.71	0.39	83.14	-10.592	-72.208	-133.342	0.75159	-0.00790	-0.00253	0.65948	18.2	13113	100
2025-9-22 8:46:27.855	WT901BLE68(76B4B30218CB)	-0.000	-0.013	1.017	0.916	0.732	0.366	-2.71	0.40	83.14	-10.592	-72.208	-133.342	0.75159	-0.00790	-0.00253	0.65948	18.2	13113	100
2025-9-22 8:46:27.855	WT901BLE68(76B4B30218CB)	-0.000	-0.013	1.017	0.916	0.732	0.366	-2.70	0.40	83.15	-10.592	-72.208	-133.342	0.75159	-0.00790	-0.00253	0.65948	18.2	13113	100
2025-9-22 8:46:27.855	WT901BLE68(76B4B30218CB)	0.013	-0.013	1.017	0.916	0.732	0.366	-2.70	0.40	83.15	-10.592	-72.208	-133.342	0.75159	-0.00790	-0.00253	0.65948	18.2	13113	100
2025-9-22 8:46:27.855	WT901BLE68(76B4B30218CB)	0.013	0.030	1.025	-0.122	-0.366	13.611	-2.70	0.40	83.22	-10.592	-72.208	-133.342	0.75159	-0.00790	-0.00253	0.65948	18.2	13113	100
2025-9-22 8:46:27.855	WT901BLE68(76B4B30218CB)	0.013	0.030	1.025	-0.122	-0.366	13.611	-2.70	0.40	83.29	-10.592	-72.208	-133.342	0.75159	-0.00790	-0.00253	0.65948	18.2	13113	100
2025-9-22 8:46:27.855	WT901BLE68(76B4B30218CB)	0.013	0.030	1.025	-0.122	-0.366	13.611	-2.70	0.39	83.35	-10.592	-72.208	-133.342	0.75159	-0.00790	-0.00253	0.65948	18.2	13113	100
2025-9-22 8:46:27.877	WT901BLE68(66B8CDDB35E6)	-0.003	0.003	1.034	0.000	0.000	0.000	0.18	0.15	-58.91	-46.742	27.850	-72.575	0.87070	0.00201	0.00034	-0.49170	20.4	13113	75
2025-9-22 8:46:27.915	WT901BLE68(76B4B30218CB)	0.014	0.030	1.025	-0.122	-0.366	13.611	-2.69	0.39	83.42	-10.592	-72.208	-133.342	0.75159	-0.00790	-0.00253	0.65948	18.2	13113	100
2025-9-22 8:46:27.915	WT901BLE68(76B4B30218CB)	0.014	0.062	1.010	5.798	-12.268	45.898	-2.66	0.33	83.66	-10.592	-72.208	-133.342	0.75159	-0.00790	-0.00253	0.65948	18.2	13113	100
2025-9-22 8:46:27.915	WT901BLE68(76B4B30218CB)	0.014	0.062	1.010	5.798	-12.268	45.898	-2.63	0.27	83.89	-10.592	-72.208	-133.342	0.75159	-0.00790	-0.00253	0.65948	18.2	13113	100
2025-9-22 8:46:27.915	WT901BLE68(76B4B30218CB)	0.014	0.062	1.010	5.798	-12.268	45.898	-2.59	0.21	84.12	-10.592	-72.208	-133.342	0.75159	-0.00790	-0.00253	0.65948	18.2	13113	100
2025-9-22 8:46:27.915	WT901BLE68(76B4B30218CB)	-0.003	0.062	1.010	5.798	-12.268	45.898	-2.56	0.15	84.35	-10.592	-72.208	-133.342	0.75159	-0.00790	-0.00253	0.65948	18.2	13113	100
2025-9-22 8:46:27.915	WT901BLE68(76B4B30218CB)	-0.003	0.139	1.019	8.972	-20.935	61.279	-2.51	0.05	84.66	-10.592	-72.208	-133.342	0.75159	-0.00790	-0.00253	0.65948	18.2	13113	100
2025-9-22 8:46:27.915	WT901BLE68(76B4B30218CB)	-0.003	0.139	1.019	8.972	-20.935	61.279	-2.46	-0.05	84.96	-10.592	-72.208	-133.342	0.75159	-0.00790	-0.00253	0.65948	18.2	13113	100
2025-9-22 8:46:27.915	WT901BLE68(76B4B30218CB)	-0.003	0.139	1.019	8.972	-20.935	61.279	-2.41	-0.15	85.27	-10.592	-72.208	-133.342	0.75159	-0.00790	-0.00253	0.65948	18.2	13113	100
2025-9-22 8:46:27.951	WT901BLE68(76B4B30218CB)	-0.072	0.139	1.019	8.972	-20.935	61.279	-2.35	-0.25	85.58	-10.592	-72.208	-133.342	0.75159	-0.00790	-0.00253	0.65948	18.2	13113	100
2025-9-22 8:46:27.951	WT901BLE68(76B4B30218CB)	-0.072	-0.336	1.043	-14.221	39.307	38.330	-2.42	-0.06	85.76	-10.592	-72.208	-133.342	0.75159	-0.00790	-0.00253	0.65948	18.2	13113	100
2025-9-22 8:46:27.951	WT901BLE68(76B4B30218CB)	-0.072	-0.336	1.043	-14.221	39.307	38.330	-2.49	0.14	85.96	-10.592	-72.208	-133.342	0.75159	-0.00790	-0.00253	0.65948	18.2	13113	100
2025-9-22 8:46:27.951	WT901BLE68(76B4B30218CB)	-0.072	-0.336	1.043	-14.221	39.307	38.330	-2.56	0.34	86.14	-10.592	-72.208	-133.342	0.75159	-0.00790	-0.00253	0.65948	18.2	13113	100
2025-9-22 8:46:27.951	WT901BLE68(76B4B30218CB)	-0.145	-0.336	1.043	-14.221	39.307	38.330	-2.63	0.54	86.33	-10.592	-72.208	-133.342	0.75159	-0.00790	-0.00253	0.65948	18.2	13113	100
2025-9-22 8:46:27.951	WT901BLE68(76B4B30218CB)	-0.145	-0.141	1.011	-9.705	3.784	45.044	-2.69	0.56	86.56	-10.592	-72.208	-133.342	0.75159	-0.00790	-0.00253	0.65948	18.2	13113	100
2025-9-22 8:46:27.951	WT901BLE68(76B4B30218CB)	-0.145	-0.141	1.011	-9.705	3.784	45.044	-2.74	0.59	86.78	-10.592	-72.208	-133.342	0.72656	-0.01028	-0.00067	0.68695	18.2	13113	100
2025-9-22 8:46:27.951	WT901BLE68(76B4B30218CB)	-0.145	-0.141	1.011	-9.705	3.784	45.044	-2.79	0.61	87.01	-10.592	-72.208	-133.342	0.72656	-0.01028	-0.00067	0.68695	18.2	13113	100
2025-9-22 8:46:27.967	WT901BLE68(66B8CDDB35E6)	-0.002	0.001	1.032	0.000	0.000	0.000	0.18	0.15	-58.91	-46.742	27.850	-72.575	0.87070	0.00201	0.00034	-0.49170	20.4	13113	75
2025-9-22 8:46:27.976	WT901BLE68(76B4B30218CB)	0.014	-0.141	1.011	-9.705	3.784	45.044	-2.84	0.64	87.23	-10.592	-72.208	-133.342	0.72656	-0.01028	-0.00067	0.68695	18.2	13113	100
2025-9-22 8:46:27.976	WT901BLE68(76B4B30218CB)	0.014	-0.070	1.041	-16.785	-0.366	35.522	-2.93	0.64	87.41	-10.592	-72.208	-133.342	0.72656	-0.01028	-0.00067	0.68695	18.2	13113	100
2025-9-22 8:46:27.976	WT901BLE68(76B4B30218CB)	0.014	-0.070	1.041	-16.785	-0.366	35.522	-3.01	0.65	87.59	-10.592	-72.208	-133.342	0.72656	-0.01028	-0.00067	0.68695	18.2	13113	100
2025-9-22 8:46:27.976	WT901BLE68(76B4B30218CB)	0.014	-0.070	1.041	-16.785	-0.366	35.522	-3.10	0.65	87.76	-10.592	-72.208	-133.342	0.72656	-0.01028	-0.00067	0.68695	18.2	13113	100
2025-9-22 8:46:27.976	WT901BLE68(76B4B30218CB)	0.045	-0.070	1.041	-16.785	-0.366	35.522	-3.19	0.65	87.95	-10.592	-72.208	-133.342	0.72656	-0.01028	-0.00067	0.68695	18.2	13113	100
2025-9-22 8:46:27.976	WT901BLE68(76B4B30218CB)	0.045	-0.024	1.051	-33.142	-1.221	8.484	-3.36	0.65	87.98	-10.592	-72.208	-133.342	0.72656	-0.01028	-0.00067	0.68695	18.2	13113	100
2025-9-22 8:46:27.976	WT901BLE68(76B4B30218CB)	0.045	-0.024	1.051	-33.142	-1.221	8.484	-3.53	0.65	88.03	-10.592	-72.208	-133.342	0.72656	-0.01028	-0.00067	0.68695	18.2	13113	100
2025-9-22 8:46:27.977	WT901BLE68(76B4B30218CB)	0.045	-0.024	1.051	-33.142	-1.221	8.484	-3.70	0.64	88.07	-10.592	-72.208	-133.342	0.72656	-0.01028	-0.00067	0.68695	18.2	13113	100
2025-9-22 8:46:28.36	WT901BLE68(76B4B30218CB)	0.077	-0.024	1.051	-33.142	-1.221	8.484	-3.86	0.64	88.12	-10.592	-72.208	-133.342	0.72656	-0.01028	-0.00067	0.68695	18.2	13113	100
2025-9-22 8:46:28.36	WT901BLE68(76B4B30218CB)	0.077	0.046	1.096	-61.462	-7.507	14.343	-4.17	0.60	88.19	-10.592	-72.208	-133.342	0.72656	-0.01028	-0.00067	0.68695	18.2	13113	100
2025-9-22 8:46:28.36	WT901BLE68(76B4B30218CB)	0.077	0.046	1.096	-61.462	-7.507	14.343	-4.48	0.57	88.26	-10.592	-72.208	-133.342	0.72656	-0.01028	-0.00067	0.68695	18.2	13113	100
2025-9-22 8:46:28.36	WT901BLE68(76B4B30218CB)	0.077	0.046	1.096	-61.462	-7.507	14.343	-4.78	0.53	88.34	-10.592	-72.208	-133.342	0.72656	-0.01028	-0.00067	0.68695	18.2	13113	100
2025-9-22 8:46:28.36	WT901BLE68(76B4B30218CB)	-0.096	0.046	1.096	-61.462	-7.507	14.343	-5.08	0.49	88.41	-10.592	-72.208	-133.342	0.72656	-0.01028	-0.00067	0.68695	18.2	13113	100
2025-9-22 8:46:28.36	WT901BLE68(76B4B30218CB)	-0.096	0.061	1.143	-45.959	14.771	51.636	-5.30	0.58	88.66	-10.592	-72.208	-133.342	0.72656	-0.01028	-0.00067	0.68695	18.2	13113	100
2025-9-22 8:46:28.36	WT901BLE68(76B4B30218CB)	-0.096	0.061	1.143	-45.959	14.771	51.636	-5.52	0.67	88.91	-10.592	-72.208	-133.342	0.72656	-0.01028	-0.00067	0.68695	18.2	13113	100
2025-9-22 8:46:28.36	WT901BLE68(76B4B30218CB)	-0.096	0.061	1.143	-45.959	14.771	51.636	-5.74	0.76	89.17	-10.592	-72.208	-133.342	0.72656	-0.01028	-0.00067	0.68695	18.2	13113	100
2025-9-22 8:46:28.63	WT901BLE68(76B4B30218CB)	0.013	0.061	1.143	-45.959	14.771	51.636	-5.95	0.85	89.42	-10.592	-72.208	-133.342	0.72656	-0.01028	-0.00067	0.68695	18.2	13113	100
2025-9-22 8:46:28.63	WT901BLE68(76B4B30218CB)	0.013	-0.070	1.286	-17.578	7.996	45.898	-6.03	0.91	89.64	-10.592	-72.208	-133.342	0.72656	-0.01028	-0.00067	0.68695	18.2	13113	100
2025-9-22 8:46:28.63	WT901BLE68(76B4B30218CB)	0.013	-0.070	1.286	-17.578	7.996	45.898	-6.10	0.96	89.87	-10.592	-72.208	-133.342	0.72656	-0.01028	-0.00067	0.68695	18.2	13113	100
2025-9-22 8:46:28.63	WT901BLE68(76B4B30218CB)	0.013	-0.070	1.286	-17.578	7.996	45.898	-6.17	1.02	90.10	-10.592	-72.208	-133.342	0.72656	-0.01028	-0.00067	0.68695	18.2	13113	100
2025-9-22 8:46:28.63	WT901BLE68(76B4B30218CB)	0.039	-0.070	1.286	-17.578	7.996	45.898	-6.25	1.08	90.32	-10.592	-72.208	-133.342	0.72656	-0.01028	-0.00067	0.68695	18.2	13113	100
2025-9-22 8:46:28.63	WT901BLE68(76B4B30218CB)	0.039	-0.066	1.230	-20.813	24.475	38.757	-6.34	1.21	90.51	-10.592	-72.208	-133.342	0.72656	-0.01028	-0.00067	0.68695	18.2	13113	100
2025-9-22 8:46:28.63	WT901BLE68(76B4B30218CB)	0.039	-0.066	1.230	-20.813	24.475	38.757	-6.43	1.34	90.69	-10.592	-72.208	-133.342	0.72656	-0.01028	-0.00067	0.68695	18.2	13113	100
2025-9-22 8:46:28.63	WT901BLE68(76B4B30218CB)	0.039	-0.066	1.230	-20.813	24.475	38.757	-6.52	1.48	90.87	-10.592	-72.208	-133.342	0.72656	-0.01028	-0.00067	0.68695	18.2	13113	100
2025-9-22 8:46:28.88	WT901BLE68(66B8CDDB35E6)	-0.004	0.006	1.034	0.000	0.000	0.000	0.18	0.15	-58.91	-46.742	27.850	-72.575	0.87070	0.00201	0.00034	-0.49170	20.4	13113	75
2025-9-22 8:46:28.93	WT901BLE68(76B4B30218CB)	0.077	-0.066	1.230	-20.813	24.475	38.757	-6.61	1.61	91.06	-10.592	-72.208	-133.342	0.72656	-0.01028	-0.00067	0.68695	18.2	13113	100
2025-9-22 8:46:28.93	WT901BLE68(76B4B30218CB)	0.077	-0.035	1.228	-25.635	31.189	19.470	-6.73	1.76	91.14	-10.592	-72.208	-133.342	0.72656	-0.01028	-0.00067	0.68695	18.2	13113	100
2025-9-22 8:46:28.93	WT901BLE68(76B4B30218CB)	0.077	-0.035	1.228	-25.635	31.189	19.470	-6.84	1.92	91.22	-10.592	-72.208	-133.342	0.72656	-0.01028	-0.00067	0.68695	18.2	13113	100
2025-9-22 8:46:28.93	WT901BLE68(76B4B30218CB)	0.077	-0.035	1.228	-25.635	31.189	19.470	-6.95	2.08	91.31	-10.592	-72.208	-133.342	0.72656	-0.01028	-0.00067	0.68695	18.2	13113	100
2025-9-22 8:46:28.93	WT901BLE68(76B4B30218CB)	0.051	-0.035	1.228	-25.635	31.189	19.470	-7.07	2.23	91.40	-10.592	-72.208	-133.342	0.72656	-0.01028	-0.00067	0.68695	18.2	13113	100
2025-9-22 8:46:28.93	WT901BLE68(76B4B30218CB)	0.051	0.106	1.225	-21.606	40.649	15.991	-7.16	2.43	91.46	-10.592	-72.208	-133.342	0.72656	-0.01028	-0.00067	0.68695	18.2	13113	100
2025-9-22 8:46:28.93	WT901BLE68(76B4B30218CB)	0.051	0.106	1.225	-21.606	40.649	15.991	-7.26	2.63	91.52	-10.592	-72.208	-133.342	0.72656	-0.01028	-0.00067	0.68695	18.2	13113	100
2025-9-22 8:46:28.93	WT901BLE68(76B4B30218CB)	0.051	0.106	1.225	-21.606	40.649	15.991	-7.34	2.83	91.58	-10.592	-72.208	-133.342	0.72656	-0.01028	-0.00067	0.68695	18.2	13113	100
2025-9-22 8:46:28.156	WT901BLE68(76B4B30218CB)	-0.035	0.106	1.225	-21.606	40.649	15.991	-7.44	3.03	91.64	-10.592	-72.208	-133.342	0.72656	-0.01028	-0.00067	0.68695	18.2	13113	100
2025-9-22 8:46:28.156	WT901BLE68(76B4B30218CB)	-0.035	0.174	1.246	-10.193	56.396	29.175	-7.46	3.31	91.76	-10.592	-72.208	-133.342	0.72656	-0.01028	-0.00067	0.68695	18.2	13113	100
2025-9-22 8:46:28.156	WT901BLE68(76B4B30218CB)	-0.035	0.174	1.246	-10.193	56.396	29.175	-7.49	3.59	91.87	-10.592	-72.208	-133.342	0.72656	-0.01028	-0.00067	0.68695	18.2	13113	100
2025-9-22 8:46:28.156	WT901BLE68(76B4B30218CB)	-0.035	0.174	1.246	-10.193	56.396	29.175	-7.51	3.87	91.99	-10.592	-72.208	-133.342	0.72656	-0.01028	-0.00067	0.68695	18.2	13113	100
2025-9-22 8:46:28.156	WT901BLE68(76B4B30218CB)	-0.010	0.174	1.246	-10.193	56.396	29.175	-7.53	4.15	92.11	-10.592	-72.208	-133.342	0.72656	-0.01028	-0.00067	0.68695	18.2	13113	100
2025-9-22 8:46:28.156	WT901BLE68(76B4B30218CB)	-0.010	0.169	1.183	21.484	82.336	59.326	-7.38	4.58	92.37	-10.592	-72.208	-133.342	0.72656	-0.01028	-0.00067	0.68695	18.2	13113	100
2025-9-22 8:46:28.156	WT901BLE68(76B4B30218CB)	-0.010	0.169	1.183	21.484	82.336	59.326	-7.23	5.00	92.63	-10.592	-72.208	-133.342	0.72656	-0.01028	-0.00067	0.68695	18.2	13113	100
2025-9-22 8:46:28.156	WT901BLE68(76B4B30218CB)	-0.010	0.169	1.183	21.484	82.336	59.326	-7.08	5.42	92.89	-10.592	-72.208	-133.342	0.72656	-0.01028	-0.00067	0.68695	18.2	13113	100
2025-9-22 8:46:28.177	WT901BLE68(66B8CDDB35E6)	0.000	0.001	1.037	0.000	0.000	0.000	0.18	0.15	-58.91	-46.742	27.850	-72.575	0.87070	0.00201	0.00034	-0.49170	20.4	13113	75
2025-9-22 8:46:28.185	WT901BLE68(76B4B30218CB)	0.083	0.169	1.183	21.484	82.336	59.326	-6.92	5.83	93.15	-11.000	-69.525	-134.117	0.72656	-0.01028	-0.00067	0.68695	18.2	13113	100
2025-9-22 8:46:28.185	WT901BLE68(76B4B30218CB)	0.083	0.201	1.077	47.546	96.619	69.458	-6.62	6.32	93.46	-11.000	-69.525	-134.117	0.72656	-0.01028	-0.00067	0.68695	18.2	13113	100
2025-9-22 8:46:28.185	WT901BLE68(76B4B30218CB)	0.083	0.201	1.077	47.546	96.619	69.458	-6.33	6.81	93.77	-11.000	-69.525	-134.117	0.72656	-0.01028	-0.00067	0.68695	18.2	13113	100
2025-9-22 8:46:28.185	WT901BLE68(76B4B30218CB)	0.083	0.201	1.077	47.546	96.619	69.458	-6.03	7.29	94.09	-11.000	-69.525	-134.117	0.72656	-0.01028	-0.00067	0.68695	18.2	13113	100
2025-9-22 8:46:28.185	WT901BLE68(76B4B30218CB)	0.068	0.201	1.077	47.546	96.619	69.458	-5.72	7.77	94.41	-11.000	-69.525	-134.117	0.72656	-0.01028	-0.00067	0.68695	18.2	13113	100
2025-9-22 8:46:28.185	WT901BLE68(76B4B30218CB)	0.068	0.179	1.024	25.330	90.820	12.085	-5.56	8.20	94.44	-11.000	-69.525	-134.117	0.72656	-0.01028	-0.00067	0.68695	18.2	13113	100
2025-9-22 8:46:28.185	WT901BLE68(76B4B30218CB)	0.068	0.179	1.024	25.330	90.820	12.085	-5.41	8.63	94.48	-11.000	-69.525	-134.117	0.72656	-0.01028	-0.00067	0.68695	18.2	13113	100
2025-9-22 8:46:28.186	WT901BLE68(76B4B30218CB)	0.068	0.179	1.024	25.330	90.820	12.085	-5.25	9.06	94.52	-11.000	-69.525	-134.117	0.72656	-0.01028	-0.00067	0.68695	18.2	13113	100
2025-9-22 8:46:28.214	WT901BLE68(76B4B30218CB)	-0.021	0.179	1.024	25.330	90.820	12.085	-5.10	9.48	94.56	-11.000	-69.525	-134.117	0.72656	-0.01028	-0.00067	0.68695	18.2	13113	100
2025-9-22 8:46:28.214	WT901BLE68(76B4B30218CB)	-0.021	0.156	1.052	22.400	86.792	-13.550	-4.98	9.88	94.47	-11.000	-69.525	-134.117	0.72656	-0.01028	-0.00067	0.68695	18.2	13113	100
2025-9-22 8:46:28.214	WT901BLE68(76B4B30218CB)	-0.021	0.156	1.052	22.400	86.792	-13.550	-4.86	10.27	94.38	-11.000	-69.525	-134.117	0.72656	-0.01028	-0.00067	0.68695	18.2	13113	100
2025-9-22 8:46:28.214	WT901BLE68(76B4B30218CB)	-0.012	0.156	1.052	22.400	86.792	-13.550	-4.74	10.66	94.30	-11.000	-69.525	-134.117	0.72656	-0.01028	-0.00067	0.68695	18.2	13113	100
2025-9-22 8:46:28.214	WT901BLE68(76B4B30218CB)	-0.012	0.124	1.019	61.584	104.553	18.066	-4.39	11.16	94.37	-11.000	-69.525	-134.117	0.72656	-0.01028	-0.00067	0.68695	18.2	13113	100
2025-9-22 8:46:28.214	WT901BLE68(76B4B30218CB)	-0.012	0.124	1.019	61.584	104.553	18.066	-4.04	11.64	94.44	-11.000	-69.525	-134.117	0.72656	-0.01028	-0.00067	0.68695	18.2	13113	100
2025-9-22 8:46:28.214	WT901BLE68(76B4B30218CB)	-0.012	0.124	1.019	61.584	104.553	18.066	-3.69	12.13	94.53	-11.000	-69.525	-134.117	0.72656	-0.01028	-0.00067	0.68695	18.2	13113	100
2025-9-22 8:46:28.214	WT901BLE68(76B4B30218CB)	-0.026	0.124	1.019	61.584	104.553	18.066	-3.35	12.61	94.61	-11.000	-69.525	-134.117	0.72656	-0.01028	-0.00067	0.68695	18.2	13113	100
2025-9-22 8:46:28.272	WT901BLE68(76B4B30218CB)	-0.026	0.138	1.000	73.608	110.718	17.639	-2.94	13.13	94.69	-11.000	-69.525	-134.117	0.72656	-0.01028	-0.00067	0.68695	18.2	13113	100
2025-9-22 8:46:28.273	WT901BLE68(76B4B30218CB)	-0.026	0.138	1.000	73.608	110.718	17.639	-2.53	13.64	94.78	-11.000	-69.525	-134.117	0.72656	-0.01028	-0.00067	0.68695	18.2	13113	100
2025-9-22 8:46:28.273	WT901BLE68(76B4B30218CB)	-0.026	0.138	1.000	73.608	110.718	17.639	-2.12	14.15	94.88	-11.000	-69.525	-134.117	0.72656	-0.01028	-0.00067	0.68695	18.2	13113	100
2025-9-22 8:46:28.273	WT901BLE68(76B4B30218CB)	-0.034	0.138	1.000	73.608	110.718	17.639	-1.72	14.66	94.97	-11.000	-69.525	-134.117	0.72656	-0.01028	-0.00067	0.68695	18.2	13113	100
2025-9-22 8:46:28.273	WT901BLE68(76B4B30218CB)	-0.034	-0.069	1.000	82.886	110.291	56.580	-1.21	15.16	95.28	-11.000	-69.525	-134.117	0.72656	-0.01028	-0.00067	0.68695	18.2	13113	100
2025-9-22 8:46:28.273	WT901BLE68(76B4B30218CB)	-0.034	-0.069	1.000	82.886	110.291	56.580	-0.70	15.66	95.59	-11.000	-69.525	-134.117	0.72656	-0.01028	-0.00067	0.68695	18.2	13113	100
2025-9-22 8:46:28.273	WT901BLE68(76B4B30218CB)	-0.034	-0.069	1.000	82.886	110.291	56.580	-0.19	16.16	95.90	-11.000	-69.525	-134.117	0.72656	-0.01028	-0.00067	0.68695	18.2	13113	100
2025-9-22 8:46:28.273	WT901BLE68(76B4B30218CB)	-0.077	-0.069	1.000	82.886	110.291	56.580	0.32	16.65	96.22	-11.000	-69.525	-134.117	0.72656	-0.01028	-0.00067	0.68695	18.2	13113	100
2025-9-22 8:46:28.295	WT901BLE68(66B8CDDB35E6)	-0.005	0.003	1.035	0.000	0.000	0.000	0.18	0.15	-58.91	-47.317	27.325	-70.542	0.87070	0.00201	0.00034	-0.49170	20.4	13113	75
2025-9-22 8:46:28.306	WT901BLE68(76B4B30218CB)	-0.077	-0.105	0.956	85.327	109.070	78.613	0.88	17.12	96.66	-11.000	-69.525	-134.117	0.72656	-0.01028	-0.00067	0.68695	18.2	13113	100
2025-9-22 8:46:28.306	WT901BLE68(76B4B30218CB)	-0.077	-0.105	0.956	85.327	109.070	78.613	1.44	17.59	97.11	-11.000	-69.525	-134.117	0.72656	-0.01028	-0.00067	0.68695	18.2	13113	100
2025-9-22 8:46:28.306	WT901BLE68(76B4B30218CB)	-0.077	-0.105	0.956	85.327	109.070	78.613	2.01	18.06	97.56	-11.000	-69.525	-134.117	0.72656	-0.01028	-0.00067	0.68695	18.2	13113	100
2025-9-22 8:46:28.306	WT901BLE68(76B4B30218CB)	-0.094	-0.105	0.956	85.327	109.070	78.613	2.57	18.52	98.02	-11.000	-69.525	-134.117	0.72656	-0.01028	-0.00067	0.68695	18.2	13113	100
2025-9-22 8:46:28.306	WT901BLE68(76B4B30218CB)	-0.094	-0.028	0.877	75.989	105.530	72.205	3.08	18.97	98.45	-11.000	-69.525	-134.117	0.72656	-0.01028	-0.00067	0.68695	18.2	13113	100
2025-9-22 8:46:28.306	WT901BLE68(76B4B30218CB)	-0.094	-0.028	0.877	75.989	105.530	72.205	3.59	19.41	98.88	-11.000	-69.525	-134.117	0.72656	-0.01028	-0.00067	0.68695	18.2	13113	100
2025-9-22 8:46:28.306	WT901BLE68(76B4B30218CB)	-0.094	-0.028	0.877	75.989	105.530	72.205	4.11	19.84	99.32	-11.000	-69.525	-134.117	0.72656	-0.01028	-0.00067	0.68695	18.2	13113	100
2025-9-22 8:46:28.306	WT901BLE68(76B4B30218CB)	-0.238	-0.028	0.877	75.989	105.530	72.205	4.63	20.27	99.77	-11.000	-69.525	-134.117	0.72656	-0.01028	-0.00067	0.68695	18.2	13113	100
2025-9-22 8:46:28.333	WT901BLE68(76B4B30218CB)	-0.238	0.178	0.884	63.660	95.093	47.668	5.04	20.65	100.08	-11.000	-69.525	-134.117	0.72656	-0.01028	-0.00067	0.68695	18.2	13113	100
2025-9-22 8:46:28.333	WT901BLE68(76B4B30218CB)	-0.238	0.178	0.884	63.660	95.093	47.668	5.46	21.04	100.40	-11.000	-69.525	-134.117	0.72656	-0.01028	-0.00067	0.68695	18.2	13113	100
2025-9-22 8:46:28.333	WT901BLE68(76B4B30218CB)	-0.238	0.178	0.884	63.660	95.093	47.668	5.88	21.43	100.72	-11.000	-69.525	-134.117	0.72656	-0.01028	-0.00067	0.68695	18.2	13113	100
2025-9-22 8:46:28.333	WT901BLE68(76B4B30218CB)	-0.360	0.178	0.884	63.660	95.093	47.668	6.31	21.81	101.05	-11.000	-69.525	-134.117	0.72656	-0.01028	-0.00067	0.68695	18.2	13113	100
2025-9-22 8:46:28.333	WT901BLE68(76B4B30218CB)	-0.360	0.210	0.951	72.266	101.563	26.550	6.74	22.24	101.27	-11.000	-69.525	-134.117	0.63159	-0.10333	0.17953	0.74704	18.2	13113	100
2025-9-22 8:46:28.333	WT901BLE68(76B4B30218CB)	-0.360	0.210	0.951	72.266	101.563	26.550	7.17	22.68	101.50	-11.000	-69.525	-134.117	0.63159	-0.10333	0.17953	0.74704	18.2	13113	100
2025-9-22 8:46:28.333	WT901BLE68(76B4B30218CB)	-0.360	0.210	0.951	72.266	101.563	26.550	7.61	23.10	101.73	-11.000	-69.525	-134.117	0.63159	-0.10333	0.17953	0.74704	18.2	13113	100
2025-9-22 8:46:28.333	WT901BLE68(76B4B30218CB)	-0.396	0.210	0.951	72.266	101.563	26.550	8.05	23.53	101.96	-11.000	-69.525	-134.117	0.63159	-0.10333	0.17953	0.74704	18.2	13113	100
2025-9-22 8:46:28.384	WT901BLE68(66B8CDDB35E6)	0.000	0.004	1.034	0.000	0.000	0.000	0.18	0.15	-58.91	-47.317	27.325	-70.542	0.87070	0.00201	0.00034	-0.49170	20.4	13113	75
2025-9-22 8:46:28.394	WT901BLE68(76B4B30218CB)	-0.396	0.098	0.989	88.928	118.652	29.846	8.59	24.04	102.24	-11.000	-69.525	-134.117	0.63159	-0.10333	0.17953	0.74704	18.2	13113	100
2025-9-22 8:46:28.394	WT901BLE68(76B4B30218CB)	-0.396	0.098	0.989	88.928	118.652	29.846	9.14	24.54	102.52	-11.000	-69.525	-134.117	0.63159	-0.10333	0.17953	0.74704	18.2	13113	100
2025-9-22 8:46:28.394	WT901BLE68(76B4B30218CB)	-0.396	0.098	0.989	88.928	118.652	29.846	9.68	25.05	102.81	-11.000	-69.525	-134.117	0.63159	-0.10333	0.17953	0.74704	18.2	13113	100
2025-9-22 8:46:28.394	WT901BLE68(76B4B30218CB)	-0.396	0.098	0.989	88.928	118.652	29.846	10.23	25.55	103.11	-11.000	-69.525	-134.117	0.63159	-0.10333	0.17953	0.74704	18.2	13113	100
2025-9-22 8:46:28.394	WT901BLE68(76B4B30218CB)	-0.396	0.087	0.952	101.746	132.629	46.875	10.90	26.10	103.52	-11.000	-69.525	-134.117	0.63159	-0.10333	0.17953	0.74704	18.2	13113	100
2025-9-22 8:46:28.394	WT901BLE68(76B4B30218CB)	-0.396	0.087	0.952	101.746	132.629	46.875	11.57	26.65	103.94	-11.000	-69.525	-134.117	0.63159	-0.10333	0.17953	0.74704	18.2	13113	100
2025-9-22 8:46:28.394	WT901BLE68(76B4B30218CB)	-0.396	0.087	0.952	101.746	132.629	46.875	12.25	27.19	104.36	-11.000	-69.525	-134.117	0.63159	-0.10333	0.17953	0.74704	18.2	13113	100
2025-9-22 8:46:28.394	WT901BLE68(76B4B30218CB)	-0.436	0.087	0.952	101.746	132.629	46.875	12.93	27.73	104.80	-11.000	-69.525	-134.117	0.63159	-0.10333	0.17953	0.74704	18.2	13113	100
2025-9-22 8:46:28.424	WT901BLE68(76B4B30218CB)	-0.436	0.167	0.910	82.397	133.301	44.739	13.52	28.27	105.24	-11.000	-69.525	-134.117	0.63159	-0.10333	0.17953	0.74704	18.2	13113	100
2025-9-22 8:46:28.424	WT901BLE68(76B4B30218CB)	-0.436	0.167	0.910	82.397	133.301	44.739	14.12	28.80	105.69	-11.000	-69.525	-134.117	0.63159	-0.10333	0.17953	0.74704	18.2	13113	100
2025-9-22 8:46:28.424	WT901BLE68(76B4B30218CB)	-0.436	0.167	0.910	82.397	133.301	44.739	14.72	29.33	106.14	-11.000	-69.525	-134.117	0.63159	-0.10333	0.17953	0.74704	18.2	13113	100
2025-9-22 8:46:28.424	WT901BLE68(76B4B30218CB)	-0.613	0.167	0.910	82.397	133.301	44.739	15.33	29.86	106.61	-11.000	-69.525	-134.117	0.63159	-0.10333	0.17953	0.74704	18.2	13113	100
2025-9-22 8:46:28.424	WT901BLE68(76B4B30218CB)	-0.613	0.278	0.990	63.660	140.076	33.875	15.83	30.44	107.03	-11.000	-69.525	-134.117	0.63159	-0.10333	0.17953	0.74704	18.2	13113	100
2025-9-22 8:46:28.424	WT901BLE68(76B4B30218CB)	-0.613	0.278	0.990	63.660	140.076	33.875	16.34	31.00	107.46	-11.000	-69.525	-134.117	0.63159	-0.10333	0.17953	0.74704	18.2	13113	100
2025-9-22 8:46:28.424	WT901BLE68(76B4B30218CB)	-0.613	0.278	0.990	63.660	140.076	33.875	16.85	31.57	107.90	-11.000	-69.525	-134.117	0.63159	-0.10333	0.17953	0.74704	18.2	13113	100
2025-9-22 8:46:28.424	WT901BLE68(76B4B30218CB)	-0.534	0.278	0.990	63.660	140.076	33.875	17.37	32.14	108.35	-11.000	-69.525	-134.117	0.63159	-0.10333	0.17953	0.74704	18.2	13113	100
2025-9-22 8:46:28.453	WT901BLE68(76B4B30218CB)	-0.534	0.217	0.913	85.815	177.429	83.435	18.21	32.79	109.15	-11.000	-69.525	-134.117	0.63159	-0.10333	0.17953	0.74704	18.2	13113	100
2025-9-22 8:46:28.453	WT901BLE68(76B4B30218CB)	-0.534	0.217	0.913	85.815	177.429	83.435	19.06	33.44	109.98	-11.000	-69.525	-134.117	0.63159	-0.10333	0.17953	0.74704	18.2	13113	100
2025-9-22 8:46:28.453	WT901BLE68(76B4B30218CB)	-0.534	0.217	0.913	85.815	177.429	83.435	19.92	34.07	110.83	-11.000	-69.525	-134.117	0.63159	-0.10333	0.17953	0.74704	18.2	13113	100
2025-9-22 8:46:28.453	WT901BLE68(76B4B30218CB)	-0.522	0.217	0.913	85.815	177.429	83.435	20.80	34.69	111.69	-11.000	-69.525	-134.117	0.63159	-0.10333	0.17953	0.74704	18.2	13113	100
2025-9-22 8:46:28.453	WT901BLE68(76B4B30218CB)	-0.522	0.305	0.822	92.651	185.486	101.624	21.81	35.30	112.70	-11.000	-69.525	-134.117	0.63159	-0.10333	0.17953	0.74704	18.2	13113	100
2025-9-22 8:46:28.453	WT901BLE68(76B4B30218CB)	-0.522	0.305	0.822	92.651	185.486	101.624	22.83	35.90	113.72	-11.000	-69.525	-134.117	0.63159	-0.10333	0.17953	0.74704	18.2	13113	100
2025-9-22 8:46:28.453	WT901BLE68(76B4B30218CB)	-0.522	0.305	0.822	92.651	185.486	101.624	23.87	36.47	114.76	-11.000	-69.525	-134.117	0.63159	-0.10333	0.17953	0.74704	18.2	13113	100
2025-9-22 8:46:28.453	WT901BLE68(76B4B30218CB)	-0.482	0.305	0.822	92.651	185.486	101.624	24.93	37.04	115.83	-11.000	-69.525	-134.117	0.63159	-0.10333	0.17953	0.74704	18.2	13113	100
2025-9-22 8:46:28.508	WT901BLE68(66B8CDDB35E6)	-0.005	0.002	1.035	0.000	0.000	0.000	0.18	0.15	-58.91	-47.317	27.325	-70.542	0.87070	0.00201	0.00037	-0.49170	20.4	13113	75
2025-9-22 8:46:28.514	WT901BLE68(76B4B30218CB)	-0.482	0.250	0.731	86.060	194.702	105.225	26.01	37.62	116.96	-11.000	-69.525	-134.117	0.63159	-0.10333	0.17953	0.74704	18.2	13113	100
2025-9-22 8:46:28.514	WT901BLE68(76B4B30218CB)	-0.482	0.250	0.731	86.060	194.702	105.225	27.10	38.18	118.11	-11.000	-69.525	-134.117	0.63159	-0.10333	0.17953	0.74704	18.2	13113	100
2025-9-22 8:46:28.514	WT901BLE68(76B4B30218CB)	-0.482	0.250	0.731	86.060	194.702	105.225	28.22	38.73	119.29	-11.000	-69.525	-134.117	0.63159	-0.10333	0.17953	0.74704	18.2	13113	100
2025-9-22 8:46:28.514	WT901BLE68(76B4B30218CB)	-0.489	0.250	0.731	86.060	194.702	105.225	29.36	39.25	120.49	-11.000	-69.525	-134.117	0.63159	-0.10333	0.17953	0.74704	18.2	13113	100
2025-9-22 8:46:28.514	WT901BLE68(76B4B30218CB)	-0.489	0.258	0.660	50.049	182.007	90.576	30.26	39.75	121.58	-11.000	-69.525	-134.117	0.63159	-0.10333	0.17953	0.74704	18.2	13113	100
2025-9-22 8:46:28.514	WT901BLE68(76B4B30218CB)	-0.489	0.258	0.660	50.049	182.007	90.576	31.17	40.23	122.69	-11.000	-69.525	-134.117	0.63159	-0.10333	0.17953	0.74704	18.2	13113	100
2025-9-22 8:46:28.514	WT901BLE68(76B4B30218CB)	-0.489	0.258	0.660	50.049	182.007	90.576	32.11	40.69	123.82	-11.000	-69.525	-134.117	0.63159	-0.10333	0.17953	0.74704	18.2	13113	100
2025-9-22 8:46:28.514	WT901BLE68(76B4B30218CB)	-0.593	0.258	0.660	50.049	182.007	90.576	33.06	41.14	124.96	-11.000	-69.525	-134.117	0.63159	-0.10333	0.17953	0.74704	18.2	13113	100
2025-9-22 8:46:28.543	WT901BLE68(76B4B30218CB)	-0.593	0.298	0.675	11.047	182.495	62.073	33.73	41.67	125.97	-11.000	-69.525	-134.117	0.63159	-0.10333	0.17953	0.74704	18.2	13113	100
2025-9-22 8:46:28.543	WT901BLE68(76B4B30218CB)	-0.593	0.298	0.675	11.047	182.495	62.073	34.42	42.18	127.00	-11.000	-69.525	-134.117	0.63159	-0.10333	0.17953	0.74704	18.2	13113	100
2025-9-22 8:46:28.543	WT901BLE68(76B4B30218CB)	-0.593	0.298	0.675	11.047	182.495	62.073	35.13	42.69	128.03	-11.000	-69.525	-134.117	0.63159	-0.10333	0.17953	0.74704	18.2	13113	100
2025-9-22 8:46:28.544	WT901BLE68(76B4B30218CB)	-0.572	0.298	0.675	11.047	182.495	62.073	35.85	43.19	129.09	-11.000	-69.525	-134.117	0.63159	-0.10333	0.17953	0.74704	18.2	13113	100
2025-9-22 8:46:28.544	WT901BLE68(76B4B30218CB)	-0.572	0.339	0.567	9.949	197.205	74.524	36.68	43.69	130.30	-11.000	-69.525	-134.117	0.63159	-0.10333	0.17953	0.74704	18.2	13113	100
2025-9-22 8:46:28.544	WT901BLE68(76B4B30218CB)	-0.572	0.339	0.567	9.949	197.205	74.524	37.53	44.18	131.52	44.917	-63.367	-142.233	0.63159	-0.10333	0.17953	0.74704	18.2	13113	100
2025-9-22 8:46:28.544	WT901BLE68(76B4B30218CB)	-0.572	0.339	0.567	9.949	197.205	74.524	38.41	44.66	132.76	44.917	-63.367	-142.233	0.63159	-0.10333	0.17953	0.74704	18.2	13113	100
2025-9-22 8:46:28.544	WT901BLE68(76B4B30218CB)	-0.499	0.339	0.567	9.949	197.205	74.524	39.30	45.13	134.03	44.917	-63.367	-142.233	0.63159	-0.10333	0.17953	0.74704	18.2	13113	100
2025-9-22 8:46:28.565	WT901BLE68(66B8CDDB35E6)	-0.000	0.002	1.033	0.000	0.000	0.000	0.18	0.15	-58.91	-47.317	27.325	-70.542	0.87070	0.00201	0.00037	-0.49170	20.4	13113	75
2025-9-22 8:46:28.573	WT901BLE68(76B4B30218CB)	-0.499	0.365	0.398	8.545	194.397	87.219	40.25	45.53	135.37	44.917	-63.367	-142.233	0.63159	-0.10333	0.17953	0.74704	18.2	13113	100
2025-9-22 8:46:28.573	WT901BLE68(76B4B30218CB)	-0.499	0.365	0.398	8.545	194.397	87.219	41.22	45.91	136.72	44.917	-63.367	-142.233	0.63159	-0.10333	0.17953	0.74704	18.2	13113	100
2025-9-22 8:46:28.573	WT901BLE68(76B4B30218CB)	-0.499	0.365	0.398	8.545	194.397	87.219	42.20	46.28	138.10	44.917	-63.367	-142.233	0.63159	-0.10333	0.17953	0.74704	18.2	13113	100
2025-9-22 8:46:28.574	WT901BLE68(76B4B30218CB)	-0.545	0.365	0.398	8.545	194.397	87.219	43.21	46.63	139.49	44.917	-63.367	-142.233	0.63159	-0.10333	0.17953	0.74704	18.2	13113	100
2025-9-22 8:46:28.574	WT901BLE68(76B4B30218CB)	-0.545	0.458	0.276	-5.066	165.100	85.632	44.05	46.87	140.73	44.917	-63.367	-142.233	0.63159	-0.10333	0.17953	0.74704	18.2	13113	100
2025-9-22 8:46:28.574	WT901BLE68(76B4B30218CB)	-0.545	0.458	0.276	-5.066	165.100	85.632	44.90	47.10	141.99	44.917	-63.367	-142.233	0.63159	-0.10333	0.17953	0.74704	18.2	13113	100
2025-9-22 8:46:28.574	WT901BLE68(76B4B30218CB)	-0.545	0.458	0.276	-5.066	165.100	85.632	45.77	47.31	143.26	44.917	-63.367	-142.233	0.63159	-0.10333	0.17953	0.74704	18.2	13113	100
2025-9-22 8:46:28.574	WT901BLE68(76B4B30218CB)	-0.690	0.458	0.276	-5.066	165.100	85.632	46.65	47.52	144.54	44.917	-63.367	-142.233	0.63159	-0.10333	0.17953	0.74704	18.2	13113	100
2025-9-22 8:46:28.634	WT901BLE68(76B4B30218CB)	-0.690	0.513	0.255	-18.860	139.648	66.589	47.30	47.70	145.59	44.917	-63.367	-142.233	0.63159	-0.10333	0.17953	0.74704	18.2	13113	100
2025-9-22 8:46:28.634	WT901BLE68(76B4B30218CB)	-0.690	0.513	0.255	-18.860	139.648	66.589	47.96	47.87	146.65	44.917	-63.367	-142.233	0.63159	-0.10333	0.17953	0.74704	18.2	13113	100
2025-9-22 8:46:28.634	WT901BLE68(76B4B30218CB)	-0.690	0.513	0.255	-18.860	139.648	66.589	48.63	48.04	147.72	44.917	-63.367	-142.233	0.63159	-0.10333	0.17953	0.74704	18.2	13113	100
2025-9-22 8:46:28.634	WT901BLE68(76B4B30218CB)	-0.732	0.513	0.255	-18.860	139.648	66.589	49.31	48.20	148.79	44.917	-63.367	-142.233	0.63159	-0.10333	0.17953	0.74704	18.2	13113	100
2025-9-22 8:46:28.634	WT901BLE68(76B4B30218CB)	-0.732	0.468	0.220	-23.560	128.052	57.251	49.89	48.36	149.77	44.917	-63.367	-142.233	0.63159	-0.10333	0.17953	0.74704	18.2	13113	100
2025-9-22 8:46:28.634	WT901BLE68(76B4B30218CB)	-0.732	0.468	0.220	-23.560	128.052	57.251	50.48	48.50	150.74	44.917	-63.367	-142.233	0.63159	-0.10333	0.17953	0.74704	18.2	13113	100
2025-9-22 8:46:28.634	WT901BLE68(76B4B30218CB)	-0.732	0.468	0.220	-23.560	128.052	57.251	51.08	48.65	151.72	44.917	-63.367	-142.233	0.63159	-0.10333	0.17953	0.74704	18.2	13113	100
2025-9-22 8:46:28.634	WT901BLE68(76B4B30218CB)	-0.786	0.468	0.220	-23.560	128.052	57.251	51.69	48.79	152.70	44.917	-63.367	-142.233	0.63159	-0.10333	0.17953	0.74704	18.2	13113	100
2025-9-22 8:46:28.662	WT901BLE68(76B4B30218CB)	-0.786	0.444	0.175	-20.447	120.483	59.509	52.29	48.89	153.67	44.917	-63.367	-142.233	0.63159	-0.10333	0.17953	0.74704	18.2	13113	100
2025-9-22 8:46:28.662	WT901BLE68(76B4B30218CB)	-0.786	0.444	0.175	-20.447	120.483	59.509	52.91	49.00	154.62	44.917	-63.367	-142.233	0.63159	-0.10333	0.17953	0.74704	18.2	13113	100
2025-9-22 8:46:28.662	WT901BLE68(76B4B30218CB)	-0.786	0.444	0.175	-20.447	120.483	59.509	53.53	49.09	155.59	44.917	-63.367	-142.233	0.63159	-0.10333	0.17953	0.74704	18.2	13113	100
2025-9-22 8:46:28.662	WT901BLE68(76B4B30218CB)	-0.822	0.444	0.175	-20.447	120.483	59.509	54.15	49.18	156.56	44.917	-63.367	-142.233	0.63159	-0.10333	0.17953	0.74704	18.2	13113	100
2025-9-22 8:46:28.663	WT901BLE68(76B4B30218CB)	-0.822	0.454	0.109	-18.494	116.089	54.199	54.75	49.27	157.48	44.917	-63.367	-142.233	0.63159	-0.10333	0.17953	0.74704	18.2	13113	100
2025-9-22 8:46:28.663	WT901BLE68(76B4B30218CB)	-0.822	0.454	0.109	-18.494	116.089	54.199	55.36	49.37	158.41	44.917	-63.367	-142.233	0.63159	-0.10333	0.17953	0.74704	18.2	13113	100
2025-9-22 8:46:28.663	WT901BLE68(76B4B30218CB)	-0.822	0.454	0.109	-18.494	116.089	54.199	55.98	49.45	159.34	44.917	-63.367	-142.233	0.63159	-0.10333	0.17953	0.74704	18.2	13113	100
2025-9-22 8:46:28.663	WT901BLE68(76B4B30218CB)	-0.860	0.454	0.109	-18.494	116.089	54.199	56.60	49.53	160.27	44.917	-63.367	-142.233	0.63159	-0.10333	0.17953	0.74704	18.2	13113	100
2025-9-22 8:46:28.685	WT901BLE68(66B8CDDB35E6)	-0.006	0.005	1.034	0.000	0.000	0.000	0.18	0.15	-58.91	-46.325	27.317	-70.117	0.87070	0.00201	0.00037	-0.49170	20.4	13113	75
2025-9-22 8:46:28.694	WT901BLE68(76B4B30218CB)	-0.860	0.500	0.068	-14.893	105.896	51.941	57.18	49.59	161.14	44.917	-63.367	-142.233	0.63159	-0.10333	0.17953	0.74704	18.2	13113	100
2025-9-22 8:46:28.694	WT901BLE68(76B4B30218CB)	-0.860	0.500	0.068	-14.893	105.896	51.941	57.78	49.65	162.00	44.917	-63.367	-142.233	0.63159	-0.10333	0.17953	0.74704	18.2	13113	100
2025-9-22 8:46:28.694	WT901BLE68(76B4B30218CB)	-0.901	0.500	0.068	-14.893	105.896	51.941	58.38	49.70	162.87	44.917	-63.367	-142.233	0.63159	-0.10333	0.17953	0.74704	18.2	13113	100
2025-9-22 8:46:28.694	WT901BLE68(76B4B30218CB)	-0.901	0.562	0.053	-10.254	100.525	41.321	58.94	49.77	163.66	44.917	-63.367	-142.233	0.63159	-0.10333	0.17953	0.74704	18.2	13113	100
2025-9-22 8:46:28.694	WT901BLE68(76B4B30218CB)	-0.901	0.562	0.053	-10.254	100.525	41.321	59.51	49.84	164.45	44.917	-63.367	-142.233	0.63159	-0.10333	0.17953	0.74704	18.2	13113	100
2025-9-22 8:46:28.694	WT901BLE68(76B4B30218CB)	-0.901	0.562	0.053	-10.254	100.525	41.321	60.10	49.92	165.25	44.917	-63.367	-142.233	0.63159	-0.10333	0.17953	0.74704	18.2	13113	100
2025-9-22 8:46:28.694	WT901BLE68(76B4B30218CB)	-0.902	0.562	0.053	-10.254	100.525	41.321	60.68	49.98	166.05	44.917	-63.367	-142.233	0.63159	-0.10333	0.17953	0.74704	18.2	13113	100
2025-9-22 8:46:28.694	WT901BLE68(76B4B30218CB)	-0.902	0.541	0.015	12.756	104.919	49.561	61.43	50.02	166.91	44.917	-63.367	-142.233	0.63159	-0.10333	0.17953	0.74704	18.2	13113	100
2025-9-22 8:46:28.752	WT901BLE68(76B4B30218CB)	-0.902	0.541	0.015	12.756	104.919	49.561	62.18	50.04	167.77	44.917	-63.367	-142.233	0.63159	-0.10333	0.17953	0.74704	18.2	13113	100
2025-9-22 8:46:28.752	WT901BLE68(76B4B30218CB)	-0.902	0.541	0.015	12.756	104.919	49.561	62.94	50.06	168.64	44.917	-63.367	-142.233	0.63159	-0.10333	0.17953	0.74704	18.2	13113	100
2025-9-22 8:46:28.752	WT901BLE68(76B4B30218CB)	-0.865	0.541	0.015	12.756	104.919	49.561	63.69	50.08	169.50	44.917	-63.367	-142.233	0.63159	-0.10333	0.17953	0.74704	18.2	13113	100
2025-9-22 8:46:28.752	WT901BLE68(76B4B30218CB)	-0.865	0.603	-0.053	31.128	105.835	44.922	64.54	50.10	170.36	44.917	-63.367	-142.233	0.63159	-0.10333	0.17953	0.74704	18.2	13113	100
2025-9-22 8:46:28.752	WT901BLE68(76B4B30218CB)	-0.865	0.603	-0.053	31.128	105.835	44.922	65.39	50.12	171.22	44.917	-63.367	-142.233	0.63159	-0.10333	0.17953	0.74704	18.2	13113	100
2025-9-22 8:46:28.753	WT901BLE68(76B4B30218CB)	-0.865	0.603	-0.053	31.128	105.835	44.922	66.24	50.13	172.08	44.917	-63.367	-142.233	0.63159	-0.10333	0.17953	0.74704	18.2	13113	100
2025-9-22 8:46:28.753	WT901BLE68(76B4B30218CB)	-0.851	0.603	-0.053	31.128	105.835	44.922	67.09	50.14	172.94	44.917	-63.367	-142.233	0.63159	-0.10333	0.17953	0.74704	18.2	13113	100
2025-9-22 8:46:28.753	WT901BLE68(76B4B30218CB)	-0.851	0.565	-0.060	32.471	96.741	36.682	67.89	50.15	173.70	44.917	-63.367	-142.233	0.28336	-0.31995	0.53564	0.72824	18.2	13113	100
2025-9-22 8:46:28.777	WT901BLE68(66B8CDDB35E6)	-0.000	0.001	1.035	0.000	0.000	0.000	0.18	0.15	-58.91	-46.325	27.317	-70.117	0.87070	0.00201	0.00037	-0.49170	20.4	13113	75
2025-9-22 8:46:28.784	WT901BLE68(76B4B30218CB)	-0.851	0.565	-0.060	32.471	96.741	36.682	68.69	50.16	174.48	44.917	-63.367	-142.233	0.28336	-0.31995	0.53564	0.72824	18.2	13113	100
2025-9-22 8:46:28.784	WT901BLE68(76B4B30218CB)	-0.851	0.565	-0.060	32.471	96.741	36.682	69.48	50.17	175.25	44.917	-63.367	-142.233	0.28336	-0.31995	0.53564	0.72824	18.2	13113	100
2025-9-22 8:46:28.784	WT901BLE68(76B4B30218CB)	-0.800	0.565	-0.060	32.471	96.741	36.682	70.28	50.16	176.02	44.917	-63.367	-142.233	0.28336	-0.31995	0.53564	0.72824	18.2	13113	100
2025-9-22 8:46:28.784	WT901BLE68(76B4B30218CB)	-0.800	0.562	-0.095	38.818	86.731	35.400	71.05	50.14	176.71	44.917	-63.367	-142.233	0.28336	-0.31995	0.53564	0.72824	18.2	13113	100
2025-9-22 8:46:28.784	WT901BLE68(76B4B30218CB)	-0.800	0.562	-0.095	38.818	86.731	35.400	71.82	50.12	177.40	44.917	-63.367	-142.233	0.28336	-0.31995	0.53564	0.72824	18.2	13113	100
2025-9-22 8:46:28.784	WT901BLE68(76B4B30218CB)	-0.800	0.562	-0.095	38.818	86.731	35.400	72.59	50.09	178.09	44.917	-63.367	-142.233	0.28336	-0.31995	0.53564	0.72824	18.2	13113	100
2025-9-22 8:46:28.784	WT901BLE68(76B4B30218CB)	-0.755	0.562	-0.095	38.818	86.731	35.400	73.36	50.05	178.78	44.917	-63.367	-142.233	0.28336	-0.31995	0.53564	0.72824	18.2	13113	100
2025-9-22 8:46:28.785	WT901BLE68(76B4B30218CB)	-0.755	0.635	-0.127	31.494	66.040	13.855	73.94	50.08	179.27	44.917	-63.367	-142.233	0.28336	-0.31995	0.53564	0.72824	18.2	13113	100
2025-9-22 8:46:28.814	WT901BLE68(76B4B30218CB)	-0.755	0.635	-0.127	31.494	66.040	13.855	74.52	50.11	179.76	44.917	-63.367	-142.233	0.28336	-0.31995	0.53564	0.72824	18.2	13113	100
2025-9-22 8:46:28.814	WT901BLE68(76B4B30218CB)	-0.755	0.635	-0.127	31.494	66.040	13.855	75.11	50.13	-179.74	44.917	-63.367	-142.233	0.28336	-0.31995	0.53564	0.72824	18.2	13113	100
2025-9-22 8:46:28.814	WT901BLE68(76B4B30218CB)	-0.740	0.635	-0.127	31.494	66.040	13.855	75.69	50.15	-179.25	44.917	-63.367	-142.233	0.28336	-0.31995	0.53564	0.72824	18.2	13113	100
2025-9-22 8:46:28.814	WT901BLE68(76B4B30218CB)	-0.740	0.688	-0.129	38.574	49.866	10.864	76.22	50.16	-178.89	44.917	-63.367	-142.233	0.28336	-0.31995	0.53564	0.72824	18.2	13113	100
2025-9-22 8:46:28.814	WT901BLE68(76B4B30218CB)	-0.740	0.688	-0.129	38.574	49.866	10.864	76.74	50.17	-178.53	44.917	-63.367	-142.233	0.28336	-0.31995	0.53564	0.72824	18.2	13113	100
2025-9-22 8:46:28.814	WT901BLE68(76B4B30218CB)	-0.740	0.688	-0.129	38.574	49.866	10.864	77.27	50.18	-178.17	44.917	-63.367	-142.233	0.28336	-0.31995	0.53564	0.72824	18.2	13113	100
2025-9-22 8:46:28.814	WT901BLE68(76B4B30218CB)	-0.738	0.688	-0.129	38.574	49.866	10.864	77.79	50.19	-177.80	44.917	-63.367	-142.233	0.28336	-0.31995	0.53564	0.72824	18.2	13113	100
2025-9-22 8:46:28.814	WT901BLE68(76B4B30218CB)	-0.738	0.646	-0.091	52.185	34.607	17.517	78.31	50.14	-177.54	44.917	-63.367	-142.233	0.28336	-0.31995	0.53564	0.72824	18.2	13113	100
2025-9-22 8:46:28.873	WT901BLE68(76B4B30218CB)	-0.738	0.646	-0.091	52.185	34.607	17.517	78.82	50.09	-177.29	44.917	-63.367	-142.233	0.28336	-0.31995	0.53564	0.72824	18.2	13113	100
2025-9-22 8:46:28.873	WT901BLE68(76B4B30218CB)	-0.738	0.646	-0.091	52.185	34.607	17.517	79.33	50.04	-177.04	44.917	-63.367	-142.233	0.28336	-0.31995	0.53564	0.72824	18.2	13113	100
2025-9-22 8:46:28.873	WT901BLE68(76B4B30218CB)	-0.758	0.646	-0.091	52.185	34.607	17.517	79.84	49.98	-176.79	44.917	-63.367	-142.233	0.28336	-0.31995	0.53564	0.72824	18.2	13113	100
2025-9-22 8:46:28.873	WT901BLE68(76B4B30218CB)	-0.758	0.618	-0.026	62.134	28.503	18.738	80.35	49.92	-176.58	44.917	-63.367	-142.233	0.28336	-0.31995	0.53564	0.72824	18.2	13113	100
2025-9-22 8:46:28.873	WT901BLE68(76B4B30218CB)	-0.758	0.618	-0.026	62.134	28.503	18.738	80.88	49.85	-176.38	44.917	-63.367	-142.233	0.28336	-0.31995	0.53564	0.72824	18.2	13113	100
2025-9-22 8:46:28.873	WT901BLE68(76B4B30218CB)	-0.758	0.618	-0.026	62.134	28.503	18.738	81.39	49.78	-176.18	44.917	-63.367	-142.233	0.28336	-0.31995	0.53564	0.72824	18.2	13113	100
2025-9-22 8:46:28.873	WT901BLE68(76B4B30218CB)	-0.792	0.618	-0.026	62.134	28.503	18.738	81.90	49.71	-175.98	44.917	-63.367	-142.233	0.28336	-0.31995	0.53564	0.72824	18.2	13113	100
2025-9-22 8:46:28.873	WT901BLE68(76B4B30218CB)	-0.792	0.639	-0.009	58.899	33.386	10.620	82.42	49.68	-175.75	44.917	-63.367	-142.233	0.28336	-0.31995	0.53564	0.72824	18.2	13113	100
2025-9-22 8:46:28.897	WT901BLE68(66B8CDDB35E6)	0.009	0.006	1.035	0.000	0.000	0.000	0.18	0.15	-58.91	-46.325	27.317	-70.117	0.87070	0.00201	0.00037	-0.49170	20.4	13113	75
2025-9-22 8:46:28.905	WT901BLE68(76B4B30218CB)	-0.792	0.639	-0.009	58.899	33.386	10.620	82.94	49.65	-175.52	44.917	-63.367	-142.233	0.28336	-0.31995	0.53564	0.72824	18.2	13113	100
2025-9-22 8:46:28.905	WT901BLE68(76B4B30218CB)	-0.792	0.639	-0.009	58.899	33.386	10.620	83.45	49.62	-175.29	44.917	-63.367	-142.233	0.28336	-0.31995	0.53564	0.72824	18.2	13113	100
2025-9-22 8:46:28.905	WT901BLE68(76B4B30218CB)	-0.709	0.639	-0.009	58.899	33.386	10.620	83.96	49.59	-175.06	44.917	-63.367	-142.233	0.28336	-0.31995	0.53564	0.72824	18.2	13113	100
2025-9-22 8:46:28.906	WT901BLE68(76B4B30218CB)	-0.709	0.660	-0.121	66.833	43.884	10.925	84.57	49.55	-174.75	44.917	-63.367	-142.233	0.28336	-0.31995	0.53564	0.72824	18.2	13113	100
2025-9-22 8:46:28.906	WT901BLE68(76B4B30218CB)	-0.709	0.660	-0.121	66.833	43.884	10.925	85.19	49.52	-174.44	44.917	-63.367	-142.233	0.28336	-0.31995	0.53564	0.72824	18.2	13113	100
2025-9-22 8:46:28.906	WT901BLE68(76B4B30218CB)	-0.709	0.660	-0.121	66.833	43.884	10.925	85.80	49.48	-174.13	44.917	-63.367	-142.233	0.28336	-0.31995	0.53564	0.72824	18.2	13113	100
2025-9-22 8:46:28.906	WT901BLE68(76B4B30218CB)	-0.642	0.660	-0.121	66.833	43.884	10.925	86.40	49.43	-173.83	44.917	-63.367	-142.233	0.28336	-0.31995	0.53564	0.72824	18.2	13113	100
2025-9-22 8:46:28.906	WT901BLE68(76B4B30218CB)	-0.642	0.727	-0.243	67.322	39.795	1.404	86.99	49.44	-173.56	44.917	-63.367	-142.233	0.28336	-0.31995	0.53564	0.72824	18.2	13113	100
2025-9-22 8:46:28.936	WT901BLE68(76B4B30218CB)	-0.642	0.727	-0.243	67.322	39.795	1.404	87.58	49.43	-173.28	44.917	-63.367	-142.233	0.28336	-0.31995	0.53564	0.72824	18.2	13113	100
2025-9-22 8:46:28.937	WT901BLE68(76B4B30218CB)	-0.642	0.727	-0.243	67.322	39.795	1.404	88.17	49.43	-173.01	44.917	-63.367	-142.233	0.28336	-0.31995	0.53564	0.72824	18.2	13113	100
2025-9-22 8:46:28.937	WT901BLE68(76B4B30218CB)	-0.605	0.727	-0.243	67.322	39.795	1.404	88.75	49.42	-172.74	44.917	-63.367	-142.233	0.28336	-0.31995	0.53564	0.72824	18.2	13113	100
2025-9-22 8:46:28.937	WT901BLE68(76B4B30218CB)	-0.605	0.733	-0.335	79.956	32.532	7.202	89.36	49.38	-172.52	44.917	-63.367	-142.233	0.28336	-0.31995	0.53564	0.72824	18.2	13113	100
2025-9-22 8:46:28.937	WT901BLE68(76B4B30218CB)	-0.605	0.733	-0.335	79.956	32.532	7.202	89.97	49.33	-172.31	44.917	-63.367	-142.233	0.28336	-0.31995	0.53564	0.72824	18.2	13113	100
2025-9-22 8:46:28.937	WT901BLE68(76B4B30218CB)	-0.605	0.733	-0.335	79.956	32.532	7.202	90.58	49.28	-172.10	44.917	-63.367	-142.233	0.28336	-0.31995	0.53564	0.72824	18.2	13113	100
2025-9-22 8:46:28.937	WT901BLE68(76B4B30218CB)	-0.654	0.733	-0.335	79.956	32.532	7.202	91.19	49.23	-171.88	44.917	-63.367	-142.233	0.28336	-0.31995	0.53564	0.72824	18.2	13113	100
2025-9-22 8:46:28.937	WT901BLE68(76B4B30218CB)	-0.654	0.747	-0.298	79.224	15.076	2.991	91.69	49.20	-171.80	44.917	-63.367	-142.233	0.28336	-0.31995	0.53564	0.72824	18.2	13113	100
2025-9-22 8:46:28.989	WT901BLE68(66B8CDDB35E6)	-0.052	0.004	1.039	0.122	2.197	-1.282	0.18	0.18	-58.93	-46.325	27.317	-70.117	0.87070	0.00201	0.00037	-0.49170	20.4	13113	75
2025-9-22 8:46:28.996	WT901BLE68(76B4B30218CB)	-0.654	0.747	-0.298	79.224	15.076	2.991	92.19	49.17	-171.72	44.917	-63.367	-142.233	0.28336	-0.31995	0.53564	0.72824	18.2	13113	100
2025-9-22 8:46:28.996	WT901BLE68(76B4B30218CB)	-0.654	0.747	-0.298	79.224	15.076	2.991	92.70	49.14	-171.64	6.042	-108.433	-42.458	0.28336	-0.31995	0.53564	0.72824	18.2	13113	100
2025-9-22 8:46:28.996	WT901BLE68(76B4B30218CB)	-0.737	0.747	-0.298	79.224	15.076	2.991	93.20	49.11	-171.56	6.042	-108.433	-42.458	0.28336	-0.31995	0.53564	0.72824	18.2	13113	100
2025-9-22 8:46:28.996	WT901BLE68(76B4B30218CB)	-0.737	0.703	-0.191	77.271	8.057	-0.122	93.66	49.09	-171.54	6.042	-108.433	-42.458	0.28336	-0.31995	0.53564	0.72824	18.2	13113	100
2025-9-22 8:46:28.996	WT901BLE68(76B4B30218CB)	-0.737	0.703	-0.191	77.271	8.057	-0.122	94.11	49.08	-171.51	6.042	-108.433	-42.458	0.28336	-0.31995	0.53564	0.72824	18.2	13113	100
2025-9-22 8:46:28.996	WT901BLE68(76B4B30218CB)	-0.737	0.703	-0.191	77.271	8.057	-0.122	94.56	49.06	-171.48	6.042	-108.433	-42.458	0.28336	-0.31995	0.53564	0.72824	18.2	13113	100
2025-9-22 8:46:28.996	WT901BLE68(76B4B30218CB)	-0.743	0.703	-0.191	77.271	8.057	-0.122	95.02	49.05	-171.46	6.042	-108.433	-42.458	0.28336	-0.31995	0.53564	0.72824	18.2	13113	100
2025-9-22 8:46:28.996	WT901BLE68(76B4B30218CB)	-0.743	0.719	-0.148	98.938	20.935	-4.272	95.65	49.04	-171.33	6.042	-108.433	-42.458	0.28336	-0.31995	0.53564	0.72824	18.2	13113	100
2025-9-22 8:46:29.26	WT901BLE68(76B4B30218CB)	-0.743	0.719	-0.148	98.938	20.935	-4.272	96.28	49.04	-171.20	6.042	-108.433	-42.458	0.28336	-0.31995	0.53564	0.72824	18.2	13113	100
2025-9-22 8:46:29.26	WT901BLE68(76B4B30218CB)	-0.743	0.719	-0.148	98.938	20.935	-4.272	96.91	49.03	-171.07	6.042	-108.433	-42.458	0.28336	-0.31995	0.53564	0.72824	18.2	13113	100
2025-9-22 8:46:29.26	WT901BLE68(76B4B30218CB)	-0.731	0.719	-0.148	98.938	20.935	-4.272	97.54	49.03	-170.94	6.042	-108.433	-42.458	0.28336	-0.31995	0.53564	0.72824	18.2	13113	100
2025-9-22 8:46:29.26	WT901BLE68(76B4B30218CB)	-0.731	0.579	-0.120	108.215	26.855	-1.404	98.24	49.00	-170.77	6.042	-108.433	-42.458	0.28336	-0.31995	0.53564	0.72824	18.2	13113	100
2025-9-22 8:46:29.26	WT901BLE68(76B4B30218CB)	-0.731	0.579	-0.120	108.215	26.855	-1.404	98.94	48.97	-170.60	6.042	-108.433	-42.458	0.28336	-0.31995	0.53564	0.72824	18.2	13113	100
2025-9-22 8:46:29.26	WT901BLE68(76B4B30218CB)	-0.731	0.579	-0.120	108.215	26.855	-1.404	99.64	48.94	-170.43	6.042	-108.433	-42.458	0.28336	-0.31995	0.53564	0.72824	18.2	13113	100
2025-9-22 8:46:29.26	WT901BLE68(76B4B30218CB)	-0.654	0.579	-0.120	108.215	26.855	-1.404	100.33	48.92	-170.26	6.042	-108.433	-42.458	0.28336	-0.31995	0.53564	0.72824	18.2	13113	100
2025-9-22 8:46:29.26	WT901BLE68(76B4B30218CB)	-0.654	0.366	-0.158	110.840	29.053	22.034	101.02	48.77	-170.12	6.042	-108.433	-42.458	0.28336	-0.31995	0.53564	0.72824	18.2	13113	100
2025-9-22 8:46:29.55	WT901BLE68(76B4B30218CB)	-0.654	0.366	-0.158	110.840	29.053	22.034	101.71	48.63	-169.97	6.042	-108.433	-42.458	0.28336	-0.31995	0.53564	0.72824	18.2	13113	100
2025-9-22 8:46:29.55	WT901BLE68(76B4B30218CB)	-0.654	0.366	-0.158	110.840	29.053	22.034	102.39	48.48	-169.83	6.042	-108.433	-42.458	0.28336	-0.31995	0.53564	0.72824	18.2	13113	100
2025-9-22 8:46:29.55	WT901BLE68(76B4B30218CB)	-0.614	0.366	-0.158	110.840	29.053	22.034	103.07	48.34	-169.69	6.042	-108.433	-42.458	0.28336	-0.31995	0.53564	0.72824	18.2	13113	100
2025-9-22 8:46:29.55	WT901BLE68(76B4B30218CB)	-0.614	0.330	-0.233	80.383	6.226	30.151	103.46	48.19	-169.74	6.042	-108.433	-42.458	0.28336	-0.31995	0.53564	0.72824	18.2	13113	100
2025-9-22 8:46:29.55	WT901BLE68(76B4B30218CB)	-0.614	0.330	-0.233	80.383	6.226	30.151	103.85	48.04	-169.79	6.042	-108.433	-42.458	0.28336	-0.31995	0.53564	0.72824	18.2	13113	100
2025-9-22 8:46:29.55	WT901BLE68(76B4B30218CB)	-0.614	0.330	-0.233	80.383	6.226	30.151	104.24	47.89	-169.84	6.042	-108.433	-42.458	0.28336	-0.31995	0.53564	0.72824	18.2	13113	100
2025-9-22 8:46:29.55	WT901BLE68(76B4B30218CB)	-0.751	0.330	-0.233	80.383	6.226	30.151	104.63	47.74	-169.89	6.042	-108.433	-42.458	0.28336	-0.31995	0.53564	0.72824	18.2	13113	100
2025-9-22 8:46:29.55	WT901BLE68(76B4B30218CB)	-0.751	0.478	-0.201	23.560	-22.705	6.348	104.62	47.75	-170.10	6.042	-108.433	-42.458	0.28336	-0.31995	0.53564	0.72824	18.2	13113	100
2025-9-22 8:46:29.105	WT901BLE68(66B8CDDB35E6)	-0.246	0.132	1.030	0.671	-3.174	-322.815	-0.09	0.31	-83.84	-50.258	15.708	-69.908	0.87070	0.00201	0.00037	-0.49170	20.4	13113	75
2025-9-22 8:46:29.114	WT901BLE68(76B4B30218CB)	-0.751	0.478	-0.201	23.560	-22.705	6.348	104.61	47.76	-170.30	6.042	-108.433	-42.458	0.28336	-0.31995	0.53564	0.72824	18.2	13113	100
2025-9-22 8:46:29.115	WT901BLE68(76B4B30218CB)	-0.751	0.478	-0.201	23.560	-22.705	6.348	104.61	47.77	-170.51	6.042	-108.433	-42.458	0.28336	-0.31995	0.53564	0.72824	18.2	13113	100
2025-9-22 8:46:29.115	WT901BLE68(76B4B30218CB)	-0.924	0.478	-0.201	23.560	-22.705	6.348	104.60	47.78	-170.72	6.042	-108.433	-42.458	0.28336	-0.31995	0.53564	0.72824	18.2	13113	100
2025-9-22 8:46:29.115	WT901BLE68(76B4B30218CB)	-0.924	0.712	-0.157	9.277	-18.494	-17.822	104.58	47.90	-170.84	6.042	-108.433	-42.458	0.28336	-0.31995	0.53564	0.72824	18.2	13113	100
2025-9-22 8:46:29.115	WT901BLE68(76B4B30218CB)	-0.924	0.712	-0.157	9.277	-18.494	-17.822	104.56	48.02	-170.97	6.042	-108.433	-42.458	0.28336	-0.31995	0.53564	0.72824	18.2	13113	100
2025-9-22 8:46:29.115	WT901BLE68(76B4B30218CB)	-0.924	0.712	-0.157	9.277	-18.494	-17.822	104.53	48.14	-171.10	6.042	-108.433	-42.458	0.28336	-0.31995	0.53564	0.72824	18.2	13113	100
2025-9-22 8:46:29.115	WT901BLE68(76B4B30218CB)	-1.012	0.712	-0.157	9.277	-18.494	-17.822	104.51	48.26	-171.22	6.042	-108.433	-42.458	0.28336	-0.31995	0.53564	0.72824	18.2	13113	100
2025-9-22 8:46:29.115	WT901BLE68(76B4B30218CB)	-1.012	0.697	-0.134	37.231	1.892	0.549	104.71	48.26	-171.24	6.042	-108.433	-42.458	0.28336	-0.31995	0.53564	0.72824	18.2	13113	100
2025-9-22 8:46:29.143	WT901BLE68(76B4B30218CB)	-1.012	0.697	-0.134	37.231	1.892	0.549	104.90	48.27	-171.26	6.042	-108.433	-42.458	0.28336	-0.31995	0.53564	0.72824	18.2	13113	100
2025-9-22 8:46:29.143	WT901BLE68(76B4B30218CB)	-1.012	0.697	-0.134	37.231	1.892	0.549	105.10	48.27	-171.28	6.042	-108.433	-42.458	0.28336	-0.31995	0.53564	0.72824	18.2	13113	100
2025-9-22 8:46:29.143	WT901BLE68(76B4B30218CB)	-0.879	0.697	-0.134	37.231	1.892	0.549	105.29	48.28	-171.30	6.042	-108.433	-42.458	0.28336	-0.31995	0.53564	0.72824	18.2	13113	100
2025-9-22 8:46:29.143	WT901BLE68(76B4B30218CB)	-0.879	0.658	-0.268	60.974	28.320	16.724	105.71	48.17	-171.16	6.042	-108.433	-42.458	0.28336	-0.31995	0.53564	0.72824	18.2	13113	100
2025-9-22 8:46:29.143	WT901BLE68(76B4B30218CB)	-0.879	0.658	-0.268	60.974	28.320	16.724	106.13	48.05	-171.02	6.042	-108.433	-42.458	0.28336	-0.31995	0.53564	0.72824	18.2	13113	100
2025-9-22 8:46:29.144	WT901BLE68(76B4B30218CB)	-0.879	0.658	-0.268	60.974	28.320	16.724	106.56	47.94	-170.89	6.042	-108.433	-42.458	0.28711	-0.29648	0.71924	0.55878	18.2	13113	100
2025-9-22 8:46:29.144	WT901BLE68(76B4B30218CB)	-0.741	0.658	-0.268	60.974	28.320	16.724	106.97	47.83	-170.76	6.042	-108.433	-42.458	0.28711	-0.29648	0.71924	0.55878	18.2	13113	100
2025-9-22 8:46:29.144	WT901BLE68(76B4B30218CB)	-0.741	0.636	-0.417	62.195	43.823	28.015	107.46	47.64	-170.55	6.042	-108.433	-42.458	0.28711	-0.29648	0.71924	0.55878	18.2	13113	100
2025-9-22 8:46:29.165	WT901BLE68(66B8CDDB35E6)	-0.004	-0.237	1.042	6.470	-24.719	134.705	0.24	-0.43	-89.75	-50.258	15.708	-69.908	0.87070	0.00201	0.00037	-0.49170	20.4	13113	75
2025-9-22 8:46:29.202	WT901BLE68(76B4B30218CB)	-0.741	0.636	-0.417	62.195	43.823	28.015	107.95	47.44	-170.34	6.042	-108.433	-42.458	0.28711	-0.29648	0.71924	0.55878	18.2	13113	100
2025-9-22 8:46:29.202	WT901BLE68(76B4B30218CB)	-0.608	0.636	-0.417	62.195	43.823	28.015	108.43	47.25	-170.14	6.042	-108.433	-42.458	0.28711	-0.29648	0.71924	0.55878	18.2	13113	100
2025-9-22 8:46:29.202	WT901BLE68(76B4B30218CB)	-0.608	0.630	-0.478	46.448	21.179	20.874	108.73	47.12	-170.07	6.042	-108.433	-42.458	0.28711	-0.29648	0.71924	0.55878	18.2	13113	100
2025-9-22 8:46:29.202	WT901BLE68(76B4B30218CB)	-0.608	0.630	-0.478	46.448	21.179	20.874	109.03	46.99	-170.01	6.042	-108.433	-42.458	0.28711	-0.29648	0.71924	0.55878	18.2	13113	100
2025-9-22 8:46:29.202	WT901BLE68(76B4B30218CB)	-0.608	0.630	-0.478	46.448	21.179	20.874	109.34	46.87	-169.95	6.042	-108.433	-42.458	0.28711	-0.29648	0.71924	0.55878	18.2	13113	100
2025-9-22 8:46:29.202	WT901BLE68(76B4B30218CB)	-0.567	0.630	-0.478	46.448	21.179	20.874	109.64	46.74	-169.89	6.042	-108.433	-42.458	0.28711	-0.29648	0.71924	0.55878	18.2	13113	100
2025-9-22 8:46:29.202	WT901BLE68(76B4B30218CB)	-0.567	0.620	-0.523	42.908	3.601	19.775	109.84	46.64	-169.95	6.042	-108.433	-42.458	0.28711	-0.29648	0.71924	0.55878	18.2	13113	100
2025-9-22 8:46:29.202	WT901BLE68(76B4B30218CB)	-0.567	0.620	-0.523	42.908	3.601	19.775	110.04	46.54	-170.01	6.042	-108.433	-42.458	0.28711	-0.29648	0.71924	0.55878	18.2	13113	100
2025-9-22 8:46:29.233	WT901BLE68(76B4B30218CB)	-0.567	0.620	-0.523	42.908	3.601	19.775	110.25	46.44	-170.07	6.042	-108.433	-42.458	0.28711	-0.29648	0.71924	0.55878	18.2	13113	100
2025-9-22 8:46:29.233	WT901BLE68(76B4B30218CB)	-0.614	0.620	-0.523	42.908	3.601	19.775	110.46	46.35	-170.13	6.042	-108.433	-42.458	0.28711	-0.29648	0.71924	0.55878	18.2	13113	100
2025-9-22 8:46:29.233	WT901BLE68(76B4B30218CB)	-0.614	0.651	-0.418	30.334	-16.907	5.798	110.53	46.35	-170.29	6.042	-108.433	-42.458	0.28711	-0.29648	0.71924	0.55878	18.2	13113	100
2025-9-22 8:46:29.233	WT901BLE68(76B4B30218CB)	-0.614	0.651	-0.418	30.334	-16.907	5.798	110.60	46.35	-170.45	6.042	-108.433	-42.458	0.28711	-0.29648	0.71924	0.55878	18.2	13113	100
2025-9-22 8:46:29.233	WT901BLE68(76B4B30218CB)	-0.614	0.651	-0.418	30.334	-16.907	5.798	110.68	46.35	-170.61	6.042	-108.433	-42.458	0.28711	-0.29648	0.71924	0.55878	18.2	13113	100
2025-9-22 8:46:29.234	WT901BLE68(76B4B30218CB)	-0.841	0.651	-0.418	30.334	-16.907	5.798	110.75	46.35	-170.77	6.042	-108.433	-42.458	0.28711	-0.29648	0.71924	0.55878	18.2	13113	100
2025-9-22 8:46:29.234	WT901BLE68(76B4B30218CB)	-0.841	0.732	-0.195	29.663	-14.343	2.380	110.84	46.37	-170.90	6.042	-108.433	-42.458	0.28711	-0.29648	0.71924	0.55878	18.2	13113	100
2025-9-22 8:46:29.234	WT901BLE68(76B4B30218CB)	-0.841	0.732	-0.195	29.663	-14.343	2.380	110.92	46.38	-171.03	6.042	-108.433	-42.458	0.28711	-0.29648	0.71924	0.55878	18.2	13113	100
2025-9-22 8:46:29.263	WT901BLE68(76B4B30218CB)	-0.841	0.732	-0.195	29.663	-14.343	2.380	111.01	46.39	-171.16	6.042	-108.433	-42.458	0.28711	-0.29648	0.71924	0.55878	18.2	13113	100
2025-9-22 8:46:29.263	WT901BLE68(76B4B30218CB)	-0.980	0.732	-0.195	29.663	-14.343	2.380	111.09	46.41	-171.30	6.042	-108.433	-42.458	0.28711	-0.29648	0.71924	0.55878	18.2	13113	100
2025-9-22 8:46:29.263	WT901BLE68(76B4B30218CB)	-0.980	0.533	-0.079	49.500	21.606	16.479	111.41	46.29	-171.23	6.042	-108.433	-42.458	0.28711	-0.29648	0.71924	0.55878	18.2	13113	100
2025-9-22 8:46:29.263	WT901BLE68(76B4B30218CB)	-0.980	0.533	-0.079	49.500	21.606	16.479	111.73	46.17	-171.16	6.042	-108.433	-42.458	0.28711	-0.29648	0.71924	0.55878	18.2	13113	100
2025-9-22 8:46:29.263	WT901BLE68(76B4B30218CB)	-0.980	0.533	-0.079	49.500	21.606	16.479	112.04	46.06	-171.10	6.042	-108.433	-42.458	0.28711	-0.29648	0.71924	0.55878	18.2	13113	100
2025-9-22 8:46:29.263	WT901BLE68(76B4B30218CB)	-0.759	0.533	-0.079	49.500	21.606	16.479	112.36	45.95	-171.03	6.042	-108.433	-42.458	0.28711	-0.29648	0.71924	0.55878	18.2	13113	100
2025-9-22 8:46:29.263	WT901BLE68(76B4B30218CB)	-0.759	0.374	-0.200	53.894	39.978	34.485	112.74	45.72	-170.89	6.042	-108.433	-42.458	0.28711	-0.29648	0.71924	0.55878	18.2	13113	100
2025-9-22 8:46:29.263	WT901BLE68(76B4B30218CB)	-0.759	0.374	-0.200	53.894	39.978	34.485	113.12	45.49	-170.77	6.042	-108.433	-42.458	0.28711	-0.29648	0.71924	0.55878	18.2	13113	100
2025-9-22 8:46:29.287	WT901BLE68(66B8CDDB35E6)	0.000	0.003	1.039	0.000	0.183	-0.061	0.16	0.21	-79.50	-50.258	15.708	-69.908	0.76907	0.00226	0.00043	-0.63907	20.4	13113	75
2025-9-22 8:46:29.324	WT901BLE68(76B4B30218CB)	-0.759	0.374	-0.200	53.894	39.978	34.485	113.49	45.27	-170.64	6.042	-108.433	-42.458	0.28711	-0.29648	0.71924	0.55878	18.2	13113	100
2025-9-22 8:46:29.325	WT901BLE68(76B4B30218CB)	-0.947	0.374	-0.200	53.894	39.978	34.485	113.87	45.04	-170.51	6.042	-108.433	-42.458	0.28711	-0.29648	0.71924	0.55878	18.2	13113	100
2025-9-22 8:46:29.325	WT901BLE68(76B4B30218CB)	-0.947	0.833	-0.400	49.622	91.125	17.944	114.48	44.78	-170.01	6.042	-108.433	-42.458	0.28711	-0.29648	0.71924	0.55878	18.2	13113	100
2025-9-22 8:46:29.325	WT901BLE68(76B4B30218CB)	-0.947	0.833	-0.400	49.622	91.125	17.944	115.09	44.51	-169.52	6.042	-108.433	-42.458	0.28711	-0.29648	0.71924	0.55878	18.2	13113	100
2025-9-22 8:46:29.325	WT901BLE68(76B4B30218CB)	-0.947	0.833	-0.400	49.622	91.125	17.944	115.69	44.24	-169.04	6.042	-108.433	-42.458	0.28711	-0.29648	0.71924	0.55878	18.2	13113	100
2025-9-22 8:46:29.325	WT901BLE68(76B4B30218CB)	-0.752	0.833	-0.400	49.622	91.125	17.944	116.27	43.97	-168.56	6.042	-108.433	-42.458	0.28711	-0.29648	0.71924	0.55878	18.2	13113	100
2025-9-22 8:46:29.325	WT901BLE68(76B4B30218CB)	-0.752	0.883	-0.701	49.072	75.134	18.250	116.79	43.73	-168.18	6.042	-108.433	-42.458	0.28711	-0.29648	0.71924	0.55878	18.2	13113	100
2025-9-22 8:46:29.325	WT901BLE68(76B4B30218CB)	-0.752	0.883	-0.701	49.072	75.134	18.250	117.30	43.47	-167.82	6.042	-108.433	-42.458	0.28711	-0.29648	0.71924	0.55878	18.2	13113	100
2025-9-22 8:46:29.353	WT901BLE68(76B4B30218CB)	-0.752	0.883	-0.701	49.072	75.134	18.250	117.81	43.22	-167.45	6.042	-108.433	-42.458	0.28711	-0.29648	0.71924	0.55878	18.2	13113	100
2025-9-22 8:46:29.353	WT901BLE68(76B4B30218CB)	-0.508	0.883	-0.701	49.072	75.134	18.250	118.31	42.97	-167.09	6.042	-108.433	-42.458	0.28711	-0.29648	0.71924	0.55878	18.2	13113	100
2025-9-22 8:46:29.353	WT901BLE68(76B4B30218CB)	-0.508	0.368	-0.535	-3.662	15.015	16.113	118.32	42.87	-167.08	6.042	-108.433	-42.458	0.28711	-0.29648	0.71924	0.55878	18.2	13113	100
2025-9-22 8:46:29.353	WT901BLE68(76B4B30218CB)	-0.508	0.368	-0.535	-3.662	15.015	16.113	118.32	42.77	-167.07	6.042	-108.433	-42.458	0.28711	-0.29648	0.71924	0.55878	18.2	13113	100
2025-9-22 8:46:29.353	WT901BLE68(76B4B30218CB)	-0.508	0.368	-0.535	-3.662	15.015	16.113	118.33	42.67	-167.06	6.042	-108.433	-42.458	0.28711	-0.29648	0.71924	0.55878	18.2	13113	100
2025-9-22 8:46:29.353	WT901BLE68(76B4B30218CB)	-0.718	0.368	-0.535	-3.662	15.015	16.113	118.34	42.57	-167.06	6.042	-108.433	-42.458	0.28711	-0.29648	0.71924	0.55878	18.2	13113	100
2025-9-22 8:46:29.353	WT901BLE68(76B4B30218CB)	-0.718	0.488	-0.355	-74.402	5.249	-19.836	118.05	42.65	-166.99	-12.583	-162.342	82.800	0.28711	-0.29648	0.71924	0.55878	18.2	13113	100
2025-9-22 8:46:29.353	WT901BLE68(76B4B30218CB)	-0.718	0.488	-0.355	-74.402	5.249	-19.836	117.75	42.73	-166.91	-12.583	-162.342	82.800	0.28711	-0.29648	0.71924	0.55878	18.2	13113	100
2025-9-22 8:46:29.377	WT901BLE68(66B8CDDB35E6)	-0.050	0.004	1.035	0.000	0.000	0.000	0.20	0.16	-78.98	-50.258	15.708	-69.908	0.76907	0.00226	0.00043	-0.63907	20.4	13113	75
2025-9-22 8:46:29.384	WT901BLE68(76B4B30218CB)	-0.718	0.488	-0.355	-74.402	5.249	-19.836	117.46	42.81	-166.84	-12.583	-162.342	82.800	0.28711	-0.29648	0.71924	0.55878	18.2	13113	100
2025-9-22 8:46:29.385	WT901BLE68(76B4B30218CB)	-0.798	0.488	-0.355	-74.402	5.249	-19.836	117.16	42.90	-166.77	-12.583	-162.342	82.800	0.28711	-0.29648	0.71924	0.55878	18.2	13113	100
2025-9-22 8:46:29.385	WT901BLE68(76B4B30218CB)	-0.798	0.626	-0.321	-69.336	19.592	-1.160	116.91	42.86	-166.67	-12.583	-162.342	82.800	0.28711	-0.29648	0.71924	0.55878	18.2	13113	100
2025-9-22 8:46:29.385	WT901BLE68(76B4B30218CB)	-0.798	0.626	-0.321	-69.336	19.592	-1.160	116.66	42.84	-166.57	-12.583	-162.342	82.800	0.28711	-0.29648	0.71924	0.55878	18.2	13113	100
2025-9-22 8:46:29.385	WT901BLE68(76B4B30218CB)	-0.798	0.626	-0.321	-69.336	19.592	-1.160	116.41	42.80	-166.48	-12.583	-162.342	82.800	0.28711	-0.29648	0.71924	0.55878	18.2	13113	100
2025-9-22 8:46:29.385	WT901BLE68(76B4B30218CB)	-0.713	0.626	-0.321	-69.336	19.592	-1.160	116.16	42.78	-166.38	-12.583	-162.342	82.800	0.28711	-0.29648	0.71924	0.55878	18.2	13113	100
2025-9-22 8:46:29.385	WT901BLE68(76B4B30218CB)	-0.713	0.743	-0.363	-40.466	37.170	35.889	116.04	42.54	-166.29	-12.583	-162.342	82.800	0.28711	-0.29648	0.71924	0.55878	18.2	13113	100
2025-9-22 8:46:29.385	WT901BLE68(76B4B30218CB)	-0.713	0.743	-0.363	-40.466	37.170	35.889	115.93	42.30	-166.21	-12.583	-162.342	82.800	0.28711	-0.29648	0.71924	0.55878	18.2	13113	100
2025-9-22 8:46:29.451	WT901BLE68(76B4B30218CB)	-0.713	0.743	-0.363	-40.466	37.170	35.889	115.81	42.07	-166.12	-12.583	-162.342	82.800	0.28711	-0.29648	0.71924	0.55878	18.2	13113	100
2025-9-22 8:46:29.452	WT901BLE68(76B4B30218CB)	-0.548	0.743	-0.363	-40.466	37.170	35.889	115.69	41.84	-166.04	-12.583	-162.342	82.800	0.28711	-0.29648	0.71924	0.55878	18.2	13113	100
2025-9-22 8:46:29.452	WT901BLE68(76B4B30218CB)	-0.548	0.803	-0.411	-35.828	35.767	47.363	115.57	41.55	-166.00	-12.583	-162.342	82.800	0.28711	-0.29648	0.71924	0.55878	18.2	13113	100
2025-9-22 8:46:29.452	WT901BLE68(76B4B30218CB)	-0.548	0.803	-0.411	-35.828	35.767	47.363	115.44	41.26	-165.95	-12.583	-162.342	82.800	0.28711	-0.29648	0.71924	0.55878	18.2	13113	100
2025-9-22 8:46:29.452	WT901BLE68(76B4B30218CB)	-0.548	0.803	-0.411	-35.828	35.767	47.363	115.32	40.98	-165.92	-12.583	-162.342	82.800	0.28711	-0.29648	0.71924	0.55878	18.2	13113	100
2025-9-22 8:46:29.452	WT901BLE68(76B4B30218CB)	-0.459	0.803	-0.411	-35.828	35.767	47.363	115.19	40.69	-165.87	-12.583	-162.342	82.800	0.28711	-0.29648	0.71924	0.55878	18.2	13113	100
2025-9-22 8:46:29.452	WT901BLE68(76B4B30218CB)	-0.459	0.819	-0.475	-46.448	38.574	75.195	114.97	40.28	-165.89	-12.583	-162.342	82.800	0.28711	-0.29648	0.71924	0.55878	18.2	13113	100
2025-9-22 8:46:29.452	WT901BLE68(76B4B30218CB)	-0.459	0.819	-0.475	-46.448	38.574	75.195	114.75	39.85	-165.91	-12.583	-162.342	82.800	0.28711	-0.29648	0.71924	0.55878	18.2	13113	100
2025-9-22 8:46:29.474	WT901BLE68(76B4B30218CB)	-0.459	0.819	-0.475	-46.448	38.574	75.195	114.53	39.44	-165.93	-12.583	-162.342	82.800	0.28711	-0.29648	0.71924	0.55878	18.2	13113	100
2025-9-22 8:46:29.474	WT901BLE68(76B4B30218CB)	-0.544	0.819	-0.475	-46.448	38.574	75.195	114.32	39.01	-165.95	-12.583	-162.342	82.800	0.28711	-0.29648	0.71924	0.55878	18.2	13113	100
2025-9-22 8:46:29.474	WT901BLE68(76B4B30218CB)	-0.544	1.016	-0.458	-78.552	10.742	60.913	113.87	38.72	-166.08	-12.583	-162.342	82.800	0.28711	-0.29648	0.71924	0.55878	18.2	13113	100
2025-9-22 8:46:29.474	WT901BLE68(76B4B30218CB)	-0.544	1.016	-0.458	-78.552	10.742	60.913	113.42	38.41	-166.21	-12.583	-162.342	82.800	0.28711	-0.29648	0.71924	0.55878	18.2	13113	100
2025-9-22 8:46:29.474	WT901BLE68(76B4B30218CB)	-0.544	1.016	-0.458	-78.552	10.742	60.913	112.98	38.11	-166.34	-12.583	-162.342	82.800	0.28711	-0.29648	0.71924	0.55878	18.2	13113	100
2025-9-22 8:46:29.474	WT901BLE68(76B4B30218CB)	-0.598	1.016	-0.458	-78.552	10.742	60.913	112.53	37.81	-166.46	-12.583	-162.342	82.800	0.28711	-0.29648	0.71924	0.55878	18.2	13113	100
2025-9-22 8:46:29.474	WT901BLE68(76B4B30218CB)	-0.598	1.060	-0.332	-89.539	5.432	36.194	112.06	37.63	-166.55	-12.583	-162.342	82.800	0.28711	-0.29648	0.71924	0.55878	18.2	13113	100
2025-9-22 8:46:29.474	WT901BLE68(76B4B30218CB)	-0.598	1.060	-0.332	-89.539	5.432	36.194	111.59	37.45	-166.64	-12.583	-162.342	82.800	0.28711	-0.29648	0.71924	0.55878	18.2	13113	100
2025-9-22 8:46:29.496	WT901BLE68(66B8CDDB35E6)	-0.153	-0.210	1.100	-7.019	-1.282	91.125	-0.36	-0.40	-75.95	-50.142	18.142	-69.800	0.76907	0.00226	0.00043	-0.63907	20.4	13113	75
2025-9-22 8:46:29.506	WT901BLE68(76B4B30218CB)	-0.598	1.060	-0.332	-89.539	5.432	36.194	111.12	37.27	-166.72	-12.583	-162.342	82.800	0.28711	-0.29648	0.71924	0.55878	18.2	13113	100
2025-9-22 8:46:29.506	WT901BLE68(76B4B30218CB)	-0.518	1.060	-0.332	-89.539	5.432	36.194	110.64	37.08	-166.80	-12.583	-162.342	82.800	0.28711	-0.29648	0.71924	0.55878	18.2	13113	100
2025-9-22 8:46:29.506	WT901BLE68(76B4B30218CB)	-0.518	0.920	-0.280	-48.584	9.216	58.044	110.36	36.79	-166.91	-12.583	-162.342	82.800	0.28711	-0.29648	0.71924	0.55878	18.2	13113	100
2025-9-22 8:46:29.507	WT901BLE68(76B4B30218CB)	-0.518	0.920	-0.280	-48.584	9.216	58.044	110.08	36.49	-167.01	-12.583	-162.342	82.800	0.28711	-0.29648	0.71924	0.55878	18.2	13113	100
2025-9-22 8:46:29.507	WT901BLE68(76B4B30218CB)	-0.518	0.920	-0.280	-48.584	9.216	58.044	109.79	36.20	-167.12	-12.583	-162.342	82.800	0.28711	-0.29648	0.71924	0.55878	18.2	13113	100
2025-9-22 8:46:29.507	WT901BLE68(76B4B30218CB)	-0.280	0.920	-0.280	-48.584	9.216	58.044	109.51	35.90	-167.22	-12.583	-162.342	82.800	0.28711	-0.29648	0.71924	0.55878	18.2	13113	100
2025-9-22 8:46:29.507	WT901BLE68(76B4B30218CB)	-0.280	0.790	-0.304	-12.756	15.808	56.091	109.43	35.61	-167.28	-12.583	-162.342	82.800	0.28711	-0.29648	0.71924	0.55878	18.2	13113	100
2025-9-22 8:46:29.507	WT901BLE68(76B4B30218CB)	-0.280	0.790	-0.304	-12.756	15.808	56.091	109.36	35.31	-167.34	-12.583	-162.342	82.800	0.28711	-0.29648	0.71924	0.55878	18.2	13113	100
2025-9-22 8:46:29.575	WT901BLE68(76B4B30218CB)	-0.280	0.790	-0.304	-12.756	15.808	56.091	109.28	35.01	-167.40	-12.583	-162.342	82.800	0.28711	-0.29648	0.71924	0.55878	18.2	13113	100
2025-9-22 8:46:29.575	WT901BLE68(76B4B30218CB)	-0.183	0.790	-0.304	-12.756	15.808	56.091	109.21	34.71	-167.46	-12.583	-162.342	82.800	0.28711	-0.29648	0.71924	0.55878	18.2	13113	100
2025-9-22 8:46:29.575	WT901BLE68(76B4B30218CB)	-0.183	0.479	-0.188	-8.118	18.066	94.116	109.12	34.23	-167.59	-12.583	-162.342	82.800	0.28711	-0.29648	0.71924	0.55878	18.2	13113	100
2025-9-22 8:46:29.575	WT901BLE68(76B4B30218CB)	-0.183	0.479	-0.188	-8.118	18.066	94.116	109.03	33.74	-167.71	-12.583	-162.342	82.800	0.28711	-0.29648	0.71924	0.55878	18.2	13113	100
2025-9-22 8:46:29.575	WT901BLE68(76B4B30218CB)	-0.183	0.479	-0.188	-8.118	18.066	94.116	108.94	33.27	-167.83	-12.583	-162.342	82.800	0.28711	-0.29648	0.71924	0.55878	18.2	13113	100
2025-9-22 8:46:29.575	WT901BLE68(76B4B30218CB)	-0.343	0.479	-0.188	-8.118	18.066	94.116	108.85	32.78	-167.96	-12.583	-162.342	82.800	0.28711	-0.29648	0.71924	0.55878	18.2	13113	100
2025-9-22 8:46:29.575	WT901BLE68(76B4B30218CB)	-0.343	0.368	-0.043	-39.612	23.376	126.831	108.59	32.14	-168.12	-12.583	-162.342	82.800	0.28711	-0.29648	0.71924	0.55878	18.2	13113	100
2025-9-22 8:46:29.575	WT901BLE68(76B4B30218CB)	-0.343	0.368	-0.043	-39.612	23.376	126.831	108.33	31.50	-168.27	-12.583	-162.342	82.800	0.28711	-0.29648	0.71924	0.55878	18.2	13113	100
2025-9-22 8:46:29.590	WT901BLE68(66B8CDDB35E6)	-0.292	0.604	1.035	14.404	4.456	-55.725	0.30	-0.52	-73.72	-50.142	18.142	-69.800	0.76907	0.00226	0.00043	-0.63907	20.4	13113	75
2025-9-22 8:46:29.600	WT901BLE68(76B4B30218CB)	-0.343	0.368	-0.043	-39.612	23.376	126.831	108.07	30.87	-168.42	-12.583	-162.342	82.800	0.16208	-0.23239	0.76926	0.57260	18.2	13113	100
2025-9-22 8:46:29.600	WT901BLE68(76B4B30218CB)	-0.382	0.368	-0.043	-39.612	23.376	126.831	107.82	30.23	-168.57	-12.583	-162.342	82.800	0.16208	-0.23239	0.76926	0.57260	18.2	13113	100
2025-9-22 8:46:29.600	WT901BLE68(76B4B30218CB)	-0.382	0.830	-0.098	-90.515	34.729	93.872	107.38	29.74	-168.59	-12.583	-162.342	82.800	0.16208	-0.23239	0.76926	0.57260	18.2	13113	100
2025-9-22 8:46:29.600	WT901BLE68(76B4B30218CB)	-0.382	0.830	-0.098	-90.515	34.729	93.872	106.94	29.25	-168.60	-12.583	-162.342	82.800	0.16208	-0.23239	0.76926	0.57260	18.2	13113	100
2025-9-22 8:46:29.600	WT901BLE68(76B4B30218CB)	-0.382	0.830	-0.098	-90.515	34.729	93.872	106.50	28.75	-168.60	-12.583	-162.342	82.800	0.16208	-0.23239	0.76926	0.57260	18.2	13113	100
2025-9-22 8:46:29.600	WT901BLE68(76B4B30218CB)	-0.223	0.830	-0.098	-90.515	34.729	93.872	106.06	28.26	-168.60	-12.583	-162.342	82.800	0.16208	-0.23239	0.76926	0.57260	18.2	13113	100
2025-9-22 8:46:29.600	WT901BLE68(76B4B30218CB)	-0.223	1.264	-0.325	-58.533	48.767	90.698	105.82	27.75	-168.52	-12.583	-162.342	82.800	0.16208	-0.23239	0.76926	0.57260	18.2	13113	100
2025-9-22 8:46:29.600	WT901BLE68(76B4B30218CB)	-0.223	1.264	-0.325	-58.533	48.767	90.698	105.58	27.25	-168.44	-12.583	-162.342	82.800	0.16208	-0.23239	0.76926	0.57260	18.2	13113	100
2025-9-22 8:46:29.627	WT901BLE68(76B4B30218CB)	-0.223	1.264	-0.325	-58.533	48.767	90.698	105.34	26.74	-168.35	-12.583	-162.342	82.800	0.16208	-0.23239	0.76926	0.57260	18.2	13113	100
2025-9-22 8:46:29.627	WT901BLE68(76B4B30218CB)	-0.031	1.264	-0.325	-58.533	48.767	90.698	105.10	26.23	-168.26	-12.583	-162.342	82.800	0.16208	-0.23239	0.76926	0.57260	18.2	13113	100
2025-9-22 8:46:29.627	WT901BLE68(76B4B30218CB)	-0.031	1.133	-0.391	26.184	54.932	114.380	105.28	25.60	-168.18	-12.583	-162.342	82.800	0.16208	-0.23239	0.76926	0.57260	18.2	13113	100
2025-9-22 8:46:29.627	WT901BLE68(76B4B30218CB)	-0.031	1.133	-0.391	26.184	54.932	114.380	105.45	24.96	-168.10	-12.583	-162.342	82.800	0.16208	-0.23239	0.76926	0.57260	18.2	13113	100
2025-9-22 8:46:29.627	WT901BLE68(76B4B30218CB)	-0.031	1.133	-0.391	26.184	54.932	114.380	105.62	24.32	-168.02	-12.583	-162.342	82.800	0.16208	-0.23239	0.76926	0.57260	18.2	13113	100
2025-9-22 8:46:29.627	WT901BLE68(76B4B30218CB)	0.082	1.133	-0.391	26.184	54.932	114.380	105.80	23.68	-167.95	-12.583	-162.342	82.800	0.16208	-0.23239	0.76926	0.57260	18.2	13113	100
2025-9-22 8:46:29.628	WT901BLE68(76B4B30218CB)	0.082	0.716	-0.192	73.486	59.021	179.443	106.17	22.73	-167.97	-12.583	-162.342	82.800	0.16208	-0.23239	0.76926	0.57260	18.2	13113	100
2025-9-22 8:46:29.628	WT901BLE68(76B4B30218CB)	0.082	0.716	-0.192	73.486	59.021	179.443	106.53	21.77	-167.99	-12.583	-162.342	82.800	0.16208	-0.23239	0.76926	0.57260	18.2	13113	100
2025-9-22 8:46:29.684	WT901BLE68(76B4B30218CB)	0.118	0.716	-0.192	73.486	59.021	179.443	106.89	20.81	-168.02	-12.583	-162.342	82.800	0.16208	-0.23239	0.76926	0.57260	18.2	13113	100
2025-9-22 8:46:29.684	WT901BLE68(76B4B30218CB)	0.118	0.490	0.088	34.180	47.668	193.054	107.02	19.81	-168.13	-12.583	-162.342	82.800	0.16208	-0.23239	0.76926	0.57260	18.2	13113	100
2025-9-22 8:46:29.684	WT901BLE68(76B4B30218CB)	0.118	0.490	0.088	34.180	47.668	193.054	107.16	18.81	-168.26	-12.583	-162.342	82.800	0.16208	-0.23239	0.76926	0.57260	18.2	13113	100
2025-9-22 8:46:29.684	WT901BLE68(76B4B30218CB)	0.118	0.490	0.088	34.180	47.668	193.054	107.28	17.81	-168.37	-12.583	-162.342	82.800	0.16208	-0.23239	0.76926	0.57260	18.2	13113	100
2025-9-22 8:46:29.684	WT901BLE68(76B4B30218CB)	0.077	0.490	0.088	34.180	47.668	193.054	107.41	16.81	-168.49	-12.583	-162.342	82.800	0.16208	-0.23239	0.76926	0.57260	18.2	13113	100
2025-9-22 8:46:29.684	WT901BLE68(76B4B30218CB)	0.077	0.690	0.212	-24.963	47.913	177.734	107.25	15.89	-168.58	-12.583	-162.342	82.800	0.16208	-0.23239	0.76926	0.57260	18.2	13113	100
2025-9-22 8:46:29.684	WT901BLE68(76B4B30218CB)	0.077	0.690	0.212	-24.963	47.913	177.734	107.08	14.96	-168.67	-12.583	-162.342	82.800	0.16208	-0.23239	0.76926	0.57260	18.2	13113	100
2025-9-22 8:46:29.684	WT901BLE68(76B4B30218CB)	0.077	0.690	0.212	-24.963	47.913	177.734	106.91	14.04	-168.76	-12.583	-162.342	82.800	0.16208	-0.23239	0.76926	0.57260	18.2	13113	100
2025-9-22 8:46:29.705	WT901BLE68(66B8CDDB35E6)	-0.290	-0.129	1.600	-48.218	15.381	-54.199	-2.52	1.27	-79.39	-50.142	18.142	-69.800	0.75830	-0.01538	0.03369	-0.65079	20.4	13113	75
2025-9-22 8:46:29.713	WT901BLE68(76B4B30218CB)	0.162	0.690	0.212	-24.963	47.913	177.734	106.75	13.12	-168.83	-12.583	-162.342	82.800	0.16208	-0.23239	0.76926	0.57260	18.2	13113	100
2025-9-22 8:46:29.713	WT901BLE68(76B4B30218CB)	0.162	0.963	0.080	-13.733	77.332	177.429	106.67	12.15	-168.77	-12.583	-162.342	82.800	0.16208	-0.23239	0.76926	0.57260	18.2	13113	100
2025-9-22 8:46:29.713	WT901BLE68(76B4B30218CB)	0.162	0.963	0.080	-13.733	77.332	177.429	106.58	11.17	-168.70	-12.583	-162.342	82.800	0.16208	-0.23239	0.76926	0.57260	18.2	13113	100
2025-9-22 8:46:29.713	WT901BLE68(76B4B30218CB)	0.162	0.963	0.080	-13.733	77.332	177.429	106.50	10.21	-168.63	-12.583	-162.342	82.800	0.16208	-0.23239	0.76926	0.57260	18.2	13113	100
2025-9-22 8:46:29.713	WT901BLE68(76B4B30218CB)	0.429	0.963	0.080	-13.733	77.332	177.429	106.41	9.23	-168.56	-12.583	-162.342	82.800	0.16208	-0.23239	0.76926	0.57260	18.2	13113	100
2025-9-22 8:46:29.713	WT901BLE68(76B4B30218CB)	0.429	1.006	-0.163	-5.249	92.285	169.556	106.38	8.27	-168.40	-12.583	-162.342	82.800	0.16208	-0.23239	0.76926	0.57260	18.2	13113	100
2025-9-22 8:46:29.713	WT901BLE68(76B4B30218CB)	0.429	1.006	-0.163	-5.249	92.285	169.556	106.34	7.31	-168.25	-12.583	-162.342	82.800	0.16208	-0.23239	0.76926	0.57260	18.2	13113	100
2025-9-22 8:46:29.713	WT901BLE68(76B4B30218CB)	0.429	1.006	-0.163	-5.249	92.285	169.556	106.30	6.35	-168.09	-12.583	-162.342	82.800	0.16208	-0.23239	0.76926	0.57260	18.2	13113	100
2025-9-22 8:46:29.747	WT901BLE68(76B4B30218CB)	0.562	1.006	-0.163	-5.249	92.285	169.556	106.25	5.38	-167.93	-12.583	-162.342	82.800	0.16208	-0.23239	0.76926	0.57260	18.2	13113	100
2025-9-22 8:46:29.747	WT901BLE68(76B4B30218CB)	0.562	0.857	-0.254	-3.235	90.393	211.548	106.22	4.22	-167.85	-12.583	-162.342	82.800	0.16208	-0.23239	0.76926	0.57260	18.2	13113	100
2025-9-22 8:46:29.747	WT901BLE68(76B4B30218CB)	0.562	0.857	-0.254	-3.235	90.393	211.548	106.17	3.05	-167.76	-12.583	-162.342	82.800	0.16208	-0.23239	0.76926	0.57260	18.2	13113	100
2025-9-22 8:46:29.747	WT901BLE68(76B4B30218CB)	0.562	0.857	-0.254	-3.235	90.393	211.548	106.13	1.89	-167.68	-12.583	-162.342	82.800	0.16208	-0.23239	0.76926	0.57260	18.2	13113	100
2025-9-22 8:46:29.747	WT901BLE68(76B4B30218CB)	0.565	0.857	-0.254	-3.235	90.393	211.548	106.13	0.71	-167.26	-85.708	-115.892	-75.208	0.16208	-0.23239	0.76926	0.57260	18.2	13113	100
2025-9-22 8:46:29.747	WT901BLE68(76B4B30218CB)	0.565	0.720	-0.311	-4.272	92.407	240.845	106.12	-0.61	-166.88	-85.708	-115.892	-75.208	0.16208	-0.23239	0.76926	0.57260	18.2	13113	100
2025-9-22 8:46:29.747	WT901BLE68(76B4B30218CB)	0.565	0.720	-0.311	-4.272	92.407	240.845	106.11	-1.93	-166.50	-85.708	-115.892	-75.208	0.16208	-0.23239	0.76926	0.57260	18.2	13113	100
2025-9-22 8:46:29.748	WT901BLE68(76B4B30218CB)	0.565	0.720	-0.311	-4.272	92.407	240.845	106.10	-3.25	-166.12	-85.708	-115.892	-75.208	0.16208	-0.23239	0.76926	0.57260	18.2	13113	100
2025-9-22 8:46:29.795	WT901BLE68(66B8CDDB35E6)	-0.312	-0.353	1.623	-49.927	133.789	23.987	-5.64	6.22	-81.84	-50.142	18.142	-69.800	0.75830	-0.01538	0.03369	-0.65079	20.4	13113	75
2025-9-22 8:46:29.804	WT901BLE68(76B4B30218CB)	0.796	0.720	-0.311	-4.272	92.407	240.845	106.09	-4.56	-165.74	-85.708	-115.892	-75.208	0.16208	-0.23239	0.76926	0.57260	18.2	13113	100
2025-9-22 8:46:29.804	WT901BLE68(76B4B30218CB)	0.796	0.746	-0.495	-20.020	79.529	215.088	106.01	-5.73	-165.38	-85.708	-115.892	-75.208	0.16208	-0.23239	0.76926	0.57260	18.2	13113	100
2025-9-22 8:46:29.804	WT901BLE68(76B4B30218CB)	0.796	0.746	-0.495	-20.020	79.529	215.088	105.92	-6.90	-165.01	-85.708	-115.892	-75.208	0.16208	-0.23239	0.76926	0.57260	18.2	13113	100
2025-9-22 8:46:29.804	WT901BLE68(76B4B30218CB)	0.796	0.746	-0.495	-20.020	79.529	215.088	105.84	-8.07	-164.65	-85.708	-115.892	-75.208	0.16208	-0.23239	0.76926	0.57260	18.2	13113	100
2025-9-22 8:46:29.804	WT901BLE68(76B4B30218CB)	0.880	0.746	-0.495	-20.020	79.529	215.088	105.77	-9.23	-164.27	-85.708	-115.892	-75.208	0.16208	-0.23239	0.76926	0.57260	18.2	13113	100
2025-9-22 8:46:29.804	WT901BLE68(76B4B30218CB)	0.880	0.755	-0.587	-24.048	75.439	191.956	105.67	-10.27	-163.89	-85.708	-115.892	-75.208	0.16208	-0.23239	0.76926	0.57260	18.2	13113	100
2025-9-22 8:46:29.804	WT901BLE68(76B4B30218CB)	0.880	0.755	-0.587	-24.048	75.439	191.956	105.57	-11.31	-163.50	-85.708	-115.892	-75.208	0.16208	-0.23239	0.76926	0.57260	18.2	13113	100
2025-9-22 8:46:29.804	WT901BLE68(76B4B30218CB)	0.880	0.755	-0.587	-24.048	75.439	191.956	105.47	-12.35	-163.11	-85.708	-115.892	-75.208	0.16208	-0.23239	0.76926	0.57260	18.2	13113	100
2025-9-22 8:46:29.834	WT901BLE68(76B4B30218CB)	0.861	0.755	-0.587	-24.048	75.439	191.956	105.37	-13.38	-162.71	-85.708	-115.892	-75.208	0.16208	-0.23239	0.76926	0.57260	18.2	13113	100
2025-9-22 8:46:29.834	WT901BLE68(76B4B30218CB)	1.723	0.905	-0.702	-41.382	53.406	185.242	105.21	-14.35	-162.42	-85.708	-115.892	-75.208	0.16208	-0.23239	0.76926	0.57260	18.2	13113	100
2025-9-22 8:46:29.834	WT901BLE68(76B4B30218CB)	3.446	1.811	-1.405	-41.382	53.406	185.242	105.05	-15.30	-162.12	-85.708	-115.892	-75.208	0.16208	-0.23239	0.76926	0.57260	18.2	13113	100
2025-9-22 8:46:29.834	WT901BLE68(76B4B30218CB)	6.893	3.622	-2.810	-41.382	53.406	185.242	104.90	-16.26	-161.82	-85.708	-115.892	-75.208	0.16208	-0.23239	0.76926	0.57260	18.2	13113	100
2025-9-22 8:46:29.834	WT901BLE68(76B4B30218CB)	0.649	7.244	-5.619	-41.382	53.406	185.242	104.75	-17.20	-161.52	-85.708	-115.892	-75.208	0.16208	-0.23239	0.76926	0.57260	18.2	13113	100
2025-9-22 8:46:29.834	WT901BLE68(76B4B30218CB)	0.649	0.858	-0.861	-41.809	43.762	206.848	104.62	-18.24	-161.30	-85.708	-115.892	-75.208	0.16208	-0.23239	0.76926	0.57260	18.2	13113	100
2025-9-22 8:46:29.834	WT901BLE68(76B4B30218CB)	0.649	0.858	-0.861	-41.809	43.762	206.848	104.50	-19.27	-161.08	-85.708	-115.892	-75.208	0.16208	-0.23239	0.76926	0.57260	18.2	13113	100
2025-9-22 8:46:29.834	WT901BLE68(76B4B30218CB)	0.649	0.858	-0.861	-41.809	43.762	206.848	104.36	-20.30	-160.86	-85.708	-115.892	-75.208	0.16208	-0.23239	0.76926	0.57260	18.2	13113	100
2025-9-22 8:46:29.863	WT901BLE68(76B4B30218CB)	0.868	0.858	-0.861	-41.809	43.762	206.848	104.23	-21.32	-160.63	-85.708	-115.892	-75.208	0.16208	-0.23239	0.76926	0.57260	18.2	13113	100
2025-9-22 8:46:29.863	WT901BLE68(76B4B30218CB)	0.868	1.053	-1.188	-32.593	51.025	225.098	104.14	-22.44	-160.39	-85.708	-115.892	-75.208	0.16208	-0.23239	0.76926	0.57260	18.2	13113	100
2025-9-22 8:46:29.863	WT901BLE68(76B4B30218CB)	0.868	1.053	-1.188	-32.593	51.025	225.098	104.05	-23.56	-160.16	-85.708	-115.892	-75.208	0.16208	-0.23239	0.76926	0.57260	18.2	13113	100
2025-9-22 8:46:29.863	WT901BLE68(76B4B30218CB)	0.868	1.053	-1.188	-32.593	51.025	225.098	103.96	-24.68	-159.92	-85.708	-115.892	-75.208	0.16208	-0.23239	0.76926	0.57260	18.2	13113	100
2025-9-22 8:46:29.863	WT901BLE68(76B4B30218CB)	1.063	1.053	-1.188	-32.593	51.025	225.098	103.86	-25.78	-159.68	-85.708	-115.892	-75.208	0.16208	-0.23239	0.76926	0.57260	18.2	13113	100
2025-9-22 8:46:29.863	WT901BLE68(76B4B30218CB)	1.063	1.238	-1.452	-19.104	11.475	242.371	103.94	-26.92	-159.68	-85.708	-115.892	-75.208	0.16208	-0.23239	0.76926	0.57260	18.2	13113	100
2025-9-22 8:46:29.863	WT901BLE68(76B4B30218CB)	1.063	1.238	-1.452	-19.104	11.475	242.371	104.02	-28.06	-159.68	-85.708	-115.892	-75.208	0.16208	-0.23239	0.76926	0.57260	18.2	13113	100
2025-9-22 8:46:29.863	WT901BLE68(76B4B30218CB)	1.063	1.238	-1.452	-19.104	11.475	242.371	104.11	-29.19	-159.69	-85.708	-115.892	-75.208	0.16208	-0.23239	0.76926	0.57260	18.2	13113	100
2025-9-22 8:46:29.915	WT901BLE68(66B8CDDB35E6)	-0.310	-0.405	1.603	-9.705	180.542	81.360	-9.92	21.52	-83.57	-23.683	21.942	-81.225	0.75830	-0.01538	0.03369	-0.65079	20.4	13113	75
2025-9-22 8:46:29.929	WT901BLE68(76B4B30218CB)	0.986	1.238	-1.452	-19.104	11.475	242.371	104.21	-30.32	-159.70	-85.708	-115.892	-75.208	0.16208	-0.23239	0.76926	0.57260	18.2	13113	100
2025-9-22 8:46:29.929	WT901BLE68(76B4B30218CB)	0.986	1.318	-1.402	33.325	-33.997	206.238	104.67	-31.21	-159.92	-85.708	-115.892	-75.208	0.16208	-0.23239	0.76926	0.57260	18.2	13113	100
2025-9-22 8:46:29.929	WT901BLE68(76B4B30218CB)	0.986	1.318	-1.402	33.325	-33.997	206.238	105.14	-32.09	-160.15	-85.708	-115.892	-75.208	0.16208	-0.23239	0.76926	0.57260	18.2	13113	100
2025-9-22 8:46:29.929	WT901BLE68(76B4B30218CB)	0.986	1.318	-1.402	33.325	-33.997	206.238	105.62	-32.98	-160.39	-85.708	-115.892	-75.208	0.16208	-0.23239	0.76926	0.57260	18.2	13113	100
2025-9-22 8:46:29.929	WT901BLE68(76B4B30218CB)	0.623	1.318	-1.402	33.325	-33.997	206.238	106.12	-33.85	-160.65	-85.708	-115.892	-75.208	0.16208	-0.23239	0.76926	0.57260	18.2	13113	100
2025-9-22 8:46:29.929	WT901BLE68(76B4B30218CB)	0.623	1.203	-1.094	88.623	-29.724	184.021	106.87	-34.62	-160.86	-85.708	-115.892	-75.208	0.16208	-0.23239	0.76926	0.57260	18.2	13113	100
2025-9-22 8:46:29.929	WT901BLE68(76B4B30218CB)	0.623	1.203	-1.094	88.623	-29.724	184.021	107.63	-35.39	-161.08	-85.708	-115.892	-75.208	0.16208	-0.23239	0.76926	0.57260	18.2	13113	100
2025-9-22 8:46:29.929	WT901BLE68(76B4B30218CB)	0.623	1.203	-1.094	88.623	-29.724	184.021	108.40	-36.15	-161.32	-85.708	-115.892	-75.208	0.16208	-0.23239	0.76926	0.57260	18.2	13113	100
2025-9-22 8:46:29.955	WT901BLE68(76B4B30218CB)	0.412	1.203	-1.094	88.623	-29.724	184.021	109.18	-36.90	-161.58	-85.708	-115.892	-75.208	0.16208	-0.23239	0.76926	0.57260	18.2	13113	100
2025-9-22 8:46:29.955	WT901BLE68(76B4B30218CB)	0.412	1.073	-0.850	124.146	18.005	162.598	109.96	-37.63	-161.53	-85.708	-115.892	-75.208	0.16208	-0.23239	0.76926	0.57260	18.2	13113	100
2025-9-22 8:46:29.955	WT901BLE68(76B4B30218CB)	0.412	1.073	-0.850	124.146	18.005	162.598	110.75	-38.36	-161.48	-85.708	-115.892	-75.208	0.16208	-0.23239	0.76926	0.57260	18.2	13113	100
2025-9-22 8:46:29.955	WT901BLE68(76B4B30218CB)	0.412	1.073	-0.850	124.146	18.005	162.598	111.54	-39.09	-161.46	-85.708	-115.892	-75.208	0.16208	-0.23239	0.76926	0.57260	18.2	13113	100
2025-9-22 8:46:29.955	WT901BLE68(76B4B30218CB)	0.437	1.073	-0.850	124.146	18.005	162.598	112.34	-39.82	-161.45	-85.708	-115.892	-75.208	0.16208	-0.23239	0.76926	0.57260	18.2	13113	100
2025-9-22 8:46:29.955	WT901BLE68(76B4B30218CB)	0.437	0.991	-1.014	92.651	36.743	157.043	112.91	-40.56	-161.33	-85.708	-115.892	-75.208	-0.36899	0.05548	0.81006	0.45218	18.2	13113	100
2025-9-22 8:46:29.955	WT901BLE68(76B4B30218CB)	0.437	0.991	-1.014	92.651	36.743	157.043	113.49	-41.29	-161.21	-85.708	-115.892	-75.208	-0.36899	0.05548	0.81006	0.45218	18.2	13113	100
2025-9-22 8:46:29.955	WT901BLE68(76B4B30218CB)	0.437	0.991	-1.014	92.651	36.743	157.043	114.07	-42.02	-161.11	-85.708	-115.892	-75.208	-0.36899	0.05548	0.81006	0.45218	18.2	13113	100
2025-9-22 8:46:29.978	WT901BLE68(66B8CDDB35E6)	-0.120	-0.692	1.192	-40.588	260.376	138.123	-7.45	43.87	-73.70	-23.683	21.942	-81.225	0.75830	-0.01538	0.03369	-0.65079	20.4	13113	75
2025-9-22 8:46:29.985	WT901BLE68(76B4B30218CB)	0.765	0.991	-1.014	92.651	36.743	157.043	114.66	-42.75	-161.02	-85.708	-115.892	-75.208	-0.36899	0.05548	0.81006	0.45218	18.2	13113	100
2025-9-22 8:46:29.985	WT901BLE68(76B4B30218CB)	0.765	0.953	-0.901	108.521	3.052	178.162	115.53	-43.50	-161.22	-85.708	-115.892	-75.208	-0.36899	0.05548	0.81006	0.45218	18.2	13113	100
2025-9-22 8:46:29.985	WT901BLE68(76B4B30218CB)	0.765	0.953	-0.901	108.521	3.052	178.162	116.41	-44.24	-161.43	-85.708	-115.892	-75.208	-0.36899	0.05548	0.81006	0.45218	18.2	13113	100
2025-9-22 8:46:29.985	WT901BLE68(76B4B30218CB)	0.765	0.953	-0.901	108.521	3.052	178.162	117.31	-44.97	-161.67	-85.708	-115.892	-75.208	-0.36899	0.05548	0.81006	0.45218	18.2	13113	100
2025-9-22 8:46:29.985	WT901BLE68(76B4B30218CB)	0.796	0.953	-0.901	108.521	3.052	178.162	118.23	-45.70	-161.93	-85.708	-115.892	-75.208	-0.36899	0.05548	0.81006	0.45218	18.2	13113	100
2025-9-22 8:46:29.985	WT901BLE68(76B4B30218CB)	0.796	0.920	-0.873	92.468	44.434	147.827	118.82	-46.40	-161.85	-85.708	-115.892	-75.208	-0.36899	0.05548	0.81006	0.45218	18.2	13113	100
2025-9-22 8:46:29.985	WT901BLE68(76B4B30218CB)	0.796	0.920	-0.873	92.468	44.434	147.827	119.43	-47.10	-161.77	-85.708	-115.892	-75.208	-0.36899	0.05548	0.81006	0.45218	18.2	13113	100
2025-9-22 8:46:29.985	WT901BLE68(76B4B30218CB)	0.796	0.920	-0.873	92.468	44.434	147.827	120.04	-47.80	-161.71	-85.708	-115.892	-75.208	-0.36899	0.05548	0.81006	0.45218	18.2	13113	100
2025-9-22 8:46:30.46	WT901BLE68(76B4B30218CB)	0.426	0.920	-0.873	92.468	44.434	147.827	120.66	-48.49	-161.67	-85.708	-115.892	-75.208	-0.36899	0.05548	0.81006	0.45218	18.2	13113	100
2025-9-22 8:46:30.46	WT901BLE68(76B4B30218CB)	0.426	1.027	-0.688	112.183	-93.994	124.573	121.98	-48.71	-162.42	-85.708	-115.892	-75.208	-0.36899	0.05548	0.81006	0.45218	18.2	13113	100
2025-9-22 8:46:30.46	WT901BLE68(76B4B30218CB)	0.426	1.027	-0.688	112.183	-93.994	124.573	123.31	-48.91	-163.18	-85.708	-115.892	-75.208	-0.36899	0.05548	0.81006	0.45218	18.2	13113	100
2025-9-22 8:46:30.46	WT901BLE68(76B4B30218CB)	0.426	1.027	-0.688	112.183	-93.994	124.573	124.63	-49.10	-163.95	-85.708	-115.892	-75.208	-0.36899	0.05548	0.81006	0.45218	18.2	13113	100
2025-9-22 8:46:30.46	WT901BLE68(76B4B30218CB)	0.308	1.027	-0.688	112.183	-93.994	124.573	125.97	-49.27	-164.73	-85.708	-115.892	-75.208	-0.36899	0.05548	0.81006	0.45218	18.2	13113	100
2025-9-22 8:46:30.46	WT901BLE68(76B4B30218CB)	0.308	0.986	-0.566	152.771	-100.220	103.821	127.47	-49.33	-165.45	-85.708	-115.892	-75.208	-0.36899	0.05548	0.81006	0.45218	18.2	13113	100
2025-9-22 8:46:30.46	WT901BLE68(76B4B30218CB)	0.308	0.986	-0.566	152.771	-100.220	103.821	128.97	-49.37	-166.17	-85.708	-115.892	-75.208	-0.36899	0.05548	0.81006	0.45218	18.2	13113	100
2025-9-22 8:46:30.46	WT901BLE68(76B4B30218CB)	0.308	0.986	-0.566	152.771	-100.220	103.821	130.46	-49.40	-166.90	-85.708	-115.892	-75.208	-0.36899	0.05548	0.81006	0.45218	18.2	13113	100
2025-9-22 8:46:30.72	WT901BLE68(76B4B30218CB)	0.656	0.986	-0.566	152.771	-100.220	103.821	131.95	-49.42	-167.62	-85.708	-115.892	-75.208	-0.36899	0.05548	0.81006	0.45218	18.2	13113	100
2025-9-22 8:46:30.72	WT901BLE68(76B4B30218CB)	0.656	1.013	-0.540	148.132	-97.900	111.511	133.44	-49.45	-168.38	-85.708	-115.892	-75.208	-0.36899	0.05548	0.81006	0.45218	18.2	13113	100
2025-9-22 8:46:30.72	WT901BLE68(76B4B30218CB)	0.656	1.013	-0.540	148.132	-97.900	111.511	134.93	-49.47	-169.13	-85.708	-115.892	-75.208	-0.36899	0.05548	0.81006	0.45218	18.2	13113	100
2025-9-22 8:46:30.72	WT901BLE68(76B4B30218CB)	0.656	1.013	-0.540	148.132	-97.900	111.511	136.42	-49.48	-169.89	-85.708	-115.892	-75.208	-0.36899	0.05548	0.81006	0.45218	18.2	13113	100
2025-9-22 8:46:30.72	WT901BLE68(76B4B30218CB)	0.657	1.013	-0.540	148.132	-97.900	111.511	137.90	-49.47	-170.65	-85.708	-115.892	-75.208	-0.36899	0.05548	0.81006	0.45218	18.2	13113	100
2025-9-22 8:46:30.72	WT901BLE68(76B4B30218CB)	0.657	0.784	-0.382	120.972	-119.751	133.423	139.43	-49.43	-171.64	-85.708	-115.892	-75.208	-0.36899	0.05548	0.81006	0.45218	18.2	13113	100
2025-9-22 8:46:30.72	WT901BLE68(76B4B30218CB)	0.657	0.784	-0.382	120.972	-119.751	133.423	140.95	-49.38	-172.63	-85.708	-115.892	-75.208	-0.36899	0.05548	0.81006	0.45218	18.2	13113	100
2025-9-22 8:46:30.72	WT901BLE68(76B4B30218CB)	0.657	0.784	-0.382	120.972	-119.751	133.423	142.47	-49.31	-173.61	-85.708	-115.892	-75.208	-0.36899	0.05548	0.81006	0.45218	18.2	13113	100
2025-9-22 8:46:30.97	WT901BLE68(66B8CDDB35E6)	0.093	-0.620	0.435	-39.246	179.749	186.768	14.21	64.51	-41.17	-23.683	21.942	-81.225	0.75836	0.29907	0.47177	-0.33582	20.4	13113	75
2025-9-22 8:46:30.105	WT901BLE68(76B4B30218CB)	0.626	0.784	-0.382	120.972	-119.751	133.423	143.98	-49.21	-174.59	-85.708	-115.892	-75.208	-0.36899	0.05548	0.81006	0.45218	18.2	13113	100
2025-9-22 8:46:30.105	WT901BLE68(76B4B30218CB)	0.626	0.591	-0.287	136.780	-109.924	126.892	145.50	-49.13	-175.48	-85.708	-115.892	-75.208	-0.36899	0.05548	0.81006	0.45218	18.2	13113	100
2025-9-22 8:46:30.105	WT901BLE68(76B4B30218CB)	0.626	0.591	-0.287	136.780	-109.924	126.892	147.02	-49.02	-176.36	-85.708	-115.892	-75.208	-0.36899	0.05548	0.81006	0.45218	18.2	13113	100
2025-9-22 8:46:30.105	WT901BLE68(76B4B30218CB)	0.626	0.591	-0.287	136.780	-109.924	126.892	148.53	-48.90	-177.24	-85.708	-115.892	-75.208	-0.36899	0.05548	0.81006	0.45218	18.2	13113	100
2025-9-22 8:46:30.105	WT901BLE68(76B4B30218CB)	0.502	0.591	-0.287	136.780	-109.924	126.892	150.03	-48.76	-178.12	-85.708	-115.892	-75.208	-0.36899	0.05548	0.81006	0.45218	18.2	13113	100
2025-9-22 8:46:30.105	WT901BLE68(76B4B30218CB)	0.502	0.584	-0.270	136.536	-87.280	96.069	151.31	-48.64	-178.69	-85.708	-115.892	-75.208	-0.36899	0.05548	0.81006	0.45218	18.2	13113	100
2025-9-22 8:46:30.105	WT901BLE68(76B4B30218CB)	0.502	0.584	-0.270	136.536	-87.280	96.069	152.58	-48.50	-179.26	-85.708	-115.892	-75.208	-0.36899	0.05548	0.81006	0.45218	18.2	13113	100
2025-9-22 8:46:30.105	WT901BLE68(76B4B30218CB)	0.502	0.584	-0.270	136.536	-87.280	96.069	153.85	-48.36	-179.82	-85.708	-115.892	-75.208	-0.36899	0.05548	0.81006	0.45218	18.2	13113	100
2025-9-22 8:46:30.162	WT901BLE68(76B4B30218CB)	0.402	0.584	-0.270	136.536	-87.280	96.069	155.10	-48.20	179.62	-85.708	-115.892	-75.208	-0.36899	0.05548	0.81006	0.45218	18.2	13113	100
2025-9-22 8:46:30.162	WT901BLE68(76B4B30218CB)	0.402	0.533	-0.300	152.100	-66.101	91.614	156.36	-48.13	179.16	-85.708	-115.892	-75.208	-0.36899	0.05548	0.81006	0.45218	18.2	13113	100
2025-9-22 8:46:30.162	WT901BLE68(76B4B30218CB)	0.402	0.533	-0.300	152.100	-66.101	91.614	157.62	-48.05	178.70	-85.708	-115.892	-75.208	-0.36899	0.05548	0.81006	0.45218	18.2	13113	100
2025-9-22 8:46:30.162	WT901BLE68(76B4B30218CB)	0.597	0.533	-0.300	152.100	-66.101	91.614	158.86	-47.96	178.26	-85.708	-115.892	-75.208	-0.36899	0.05548	0.81006	0.45218	18.2	13113	100
2025-9-22 8:46:30.162	WT901BLE68(76B4B30218CB)	0.597	0.396	-0.304	174.377	-51.453	104.675	160.26	-47.94	177.75	-85.708	-115.892	-75.208	-0.36899	0.05548	0.81006	0.45218	18.2	13113	100
2025-9-22 8:46:30.162	WT901BLE68(76B4B30218CB)	0.597	0.396	-0.304	174.377	-51.453	104.675	161.65	-47.92	177.25	-85.708	-115.892	-75.208	-0.36899	0.05548	0.81006	0.45218	18.2	13113	100
2025-9-22 8:46:30.162	WT901BLE68(76B4B30218CB)	0.597	0.396	-0.304	174.377	-51.453	104.675	163.05	-47.89	176.75	-85.708	-115.892	-75.208	-0.36899	0.05548	0.81006	0.45218	18.2	13113	100
2025-9-22 8:46:30.162	WT901BLE68(76B4B30218CB)	0.837	0.396	-0.304	174.377	-51.453	104.675	164.44	-47.85	176.25	-73.975	-29.683	-66.175	-0.36899	0.05548	0.81006	0.45218	18.2	13113	100
2025-9-22 8:46:30.185	WT901BLE68(66B8CDDB35E6)	0.422	-0.012	-0.147	-103.149	120.300	322.937	62.62	62.17	13.23	-23.683	21.942	-81.225	0.75836	0.29907	0.47177	-0.33582	20.4	13113	75
2025-9-22 8:46:30.193	WT901BLE68(76B4B30218CB)	0.837	0.329	-0.188	118.225	-66.772	115.845	165.64	-47.73	175.65	-73.975	-29.683	-66.175	-0.36899	0.05548	0.81006	0.45218	18.2	13113	100
2025-9-22 8:46:30.193	WT901BLE68(76B4B30218CB)	0.837	0.329	-0.188	118.225	-66.772	115.845	166.83	-47.61	175.05	-73.975	-29.683	-66.175	-0.36899	0.05548	0.81006	0.45218	18.2	13113	100
2025-9-22 8:46:30.193	WT901BLE68(76B4B30218CB)	0.837	0.329	-0.188	118.225	-66.772	115.845	168.02	-47.47	174.45	-73.975	-29.683	-66.175	-0.36899	0.05548	0.81006	0.45218	18.2	13113	100
2025-9-22 8:46:30.193	WT901BLE68(76B4B30218CB)	0.648	0.329	-0.188	118.225	-66.772	115.845	169.21	-47.33	173.85	-73.975	-29.683	-66.175	-0.36899	0.05548	0.81006	0.45218	18.2	13113	100
2025-9-22 8:46:30.193	WT901BLE68(76B4B30218CB)	0.648	0.238	-0.170	48.950	-75.012	156.067	170.27	-47.16	172.96	-73.975	-29.683	-66.175	-0.36899	0.05548	0.81006	0.45218	18.2	13113	100
2025-9-22 8:46:30.193	WT901BLE68(76B4B30218CB)	0.648	0.238	-0.170	48.950	-75.012	156.067	171.32	-46.99	172.08	-73.975	-29.683	-66.175	-0.36899	0.05548	0.81006	0.45218	18.2	13113	100
2025-9-22 8:46:30.193	WT901BLE68(76B4B30218CB)	0.648	0.238	-0.170	48.950	-75.012	156.067	172.36	-46.80	171.21	-73.975	-29.683	-66.175	-0.36899	0.05548	0.81006	0.45218	18.2	13113	100
2025-9-22 8:46:30.193	WT901BLE68(76B4B30218CB)	0.525	0.238	-0.170	48.950	-75.012	156.067	173.40	-46.60	170.34	-73.975	-29.683	-66.175	-0.36899	0.05548	0.81006	0.45218	18.2	13113	100
2025-9-22 8:46:30.227	WT901BLE68(76B4B30218CB)	0.525	0.173	-0.298	46.143	-60.486	118.042	174.22	-46.44	169.76	-73.975	-29.683	-66.175	-0.36899	0.05548	0.81006	0.45218	18.2	13113	100
2025-9-22 8:46:30.227	WT901BLE68(76B4B30218CB)	0.525	0.173	-0.298	46.143	-60.486	118.042	175.02	-46.28	169.19	-73.975	-29.683	-66.175	-0.36899	0.05548	0.81006	0.45218	18.2	13113	100
2025-9-22 8:46:30.227	WT901BLE68(76B4B30218CB)	0.525	0.173	-0.298	46.143	-60.486	118.042	175.83	-46.10	168.62	-73.975	-29.683	-66.175	-0.36899	0.05548	0.81006	0.45218	18.2	13113	100
2025-9-22 8:46:30.227	WT901BLE68(76B4B30218CB)	0.550	0.173	-0.298	46.143	-60.486	118.042	176.63	-45.92	168.06	-73.975	-29.683	-66.175	-0.36899	0.05548	0.81006	0.45218	18.2	13113	100
2025-9-22 8:46:30.227	WT901BLE68(76B4B30218CB)	0.550	-0.107	-0.392	78.735	-31.006	82.031	177.40	-45.88	167.77	-73.975	-29.683	-66.175	-0.36899	0.05548	0.81006	0.45218	18.2	13113	100
2025-9-22 8:46:30.227	WT901BLE68(76B4B30218CB)	0.550	-0.107	-0.392	78.735	-31.006	82.031	178.18	-45.82	167.48	-73.975	-29.683	-66.175	-0.36899	0.05548	0.81006	0.45218	18.2	13113	100
2025-9-22 8:46:30.227	WT901BLE68(76B4B30218CB)	0.550	-0.107	-0.392	78.735	-31.006	82.031	178.96	-45.76	167.19	-73.975	-29.683	-66.175	-0.36899	0.05548	0.81006	0.45218	18.2	13113	100
2025-9-22 8:46:30.227	WT901BLE68(76B4B30218CB)	0.779	-0.107	-0.392	78.735	-31.006	82.031	179.74	-45.69	166.90	-73.975	-29.683	-66.175	-0.36899	0.05548	0.81006	0.45218	18.2	13113	100
2025-9-22 8:46:30.282	WT901BLE68(76B4B30218CB)	0.779	-0.126	-0.606	128.540	-31.372	52.917	-179.38	-45.62	166.82	-73.975	-29.683	-66.175	-0.36899	0.05548	0.81006	0.45218	18.2	13113	100
