time	DeviceName	AccX(g)	AccY(g)	AccZ(g)	AsX(°/s)	AsY(°/s)	AsZ(°/s)	AngleX(°)	AngleY(°)	AngleZ(°)	HX(uT)	HY(uT)	HZ(uT)	Q0()	Q1()	Q2()	Q3()	Temperature(°C)	Version()	Battery level(%)	Relative_Angle_deg	Slouch_Flag	Elapsed_sec
2025-05-20 11:27:12.526	WT901BLE68(66B8CDDB35E6)	0.417	0.889	0.242	16.785	40.771	5.188	72.64	-19.62	-86.81	-45.992	-18.0	-5.642	0.63608	0.31549	-0.50833	-0.48718	24.5	13113	100	54.54381986330913	1	0.0
2025-05-20 11:27:12.526	WT901BLE68(66B8CDDB35E6)	0.417	0.889	0.242	16.785	40.771	5.188	72.66	-19.6	-86.59	-45.992	-18.0	-5.642	0.63608	0.31549	-0.50833	-0.48718	24.5	13113	100	54.54381986330913	1	0.0
2025-05-20 11:27:12.526	WT901BLE68(66B8CDDB35E6)	0.417	0.889	0.242	16.785	40.771	5.188	72.67	-19.57	-86.37	-45.992	-18.0	-5.642	0.63608	0.31549	-0.50833	-0.48718	24.5	13113	100	54.54381986330913	1	0.0
2025-05-20 11:27:12.526	WT901BLE68(66B8CDDB35E6)	0.417	0.889	0.242	16.785	40.771	5.188	72.7	-19.54	-86.15	-45.992	-18.0	-5.642	0.63608	0.31549	-0.50833	-0.48718	24.5	13113	100	54.54381986330913	1	0.0
2025-05-20 11:27:12.526	WT901BLE68(66B8CDDB35E6)	0.417	0.897	0.237	16.052	42.542	4.7	72.71	-19.52	-85.92	-45.992	-18.0	-5.642	0.63608	0.31549	-0.50833	-0.48718	24.5	13113	100	54.54381986330913	1	0.0
2025-05-20 11:27:12.526	WT901BLE68(66B8CDDB35E6)	0.417	0.897	0.237	16.052	42.542	4.7	72.72	-19.49	-85.7	-45.992	-18.0	-5.642	0.63608	0.31549	-0.50833	-0.48718	24.5	13113	100	54.54381986330913	1	0.0
2025-05-20 11:27:12.526	WT901BLE68(66B8CDDB35E6)	0.417	0.897	0.237	16.052	42.542	4.7	72.73	-19.46	-85.47	-45.992	-18.0	-5.642	0.63608	0.31549	-0.50833	-0.48718	24.5	13113	100	54.54381986330913	1	0.0
2025-05-20 11:27:12.527	WT901BLE68(66B8CDDB35E6)	0.407	0.897	0.237	16.052	42.542	4.7	72.75	-19.43	-85.25	-45.992	-18.0	-5.642	0.63608	0.31549	-0.50833	-0.48718	24.5	13113	100	54.54381986330913	1	0.001
2025-05-20 11:27:12.558	WT901BLE68(66B8CDDB35E6)	0.407	0.913	0.233	15.198	45.41	5.493	72.75	-19.4	-85.01	-45.992	-18.0	-5.642	0.63608	0.31549	-0.50833	-0.48718	24.5	13113	100	54.54381986330913	1	0.032
2025-05-20 11:27:12.558	WT901BLE68(66B8CDDB35E6)	0.407	0.913	0.233	15.198	45.41	5.493	72.75	-19.37	-84.77	-45.992	-18.0	-5.642	0.63608	0.31549	-0.50833	-0.48718	24.5	13113	100	54.54381986330913	1	0.032
2025-05-20 11:27:12.558	WT901BLE68(66B8CDDB35E6)	0.407	0.913	0.233	15.198	45.41	5.493	72.76	-19.35	-84.53	-45.992	-18.0	-5.642	0.63608	0.31549	-0.50833	-0.48718	24.5	13113	100	54.54381986330913	1	0.032
2025-05-20 11:27:12.558	WT901BLE68(66B8CDDB35E6)	0.393	0.913	0.233	15.198	45.41	5.493	72.76	-19.32	-84.3	-45.992	-18.0	-5.642	0.63608	0.31549	-0.50833	-0.48718	24.5	13113	100	54.54381986330913	1	0.032
2025-05-20 11:27:12.558	WT901BLE68(66B8CDDB35E6)	0.393	0.925	0.241	15.198	48.401	10.132	72.76	-19.31	-84.04	-45.992	-18.0	-5.642	0.63608	0.31549	-0.50833	-0.48718	24.5	13113	100	54.54381986330913	1	0.032
2025-05-20 11:27:12.558	WT901BLE68(66B8CDDB35E6)	0.393	0.925	0.241	15.198	48.401	10.132	72.75	-19.3	-83.79	-45.992	-18.0	-5.642	0.63608	0.31549	-0.50833	-0.48718	24.5	13113	100	54.54381986330913	1	0.032
2025-05-20 11:27:12.558	WT901BLE68(66B8CDDB35E6)	0.393	0.925	0.241	15.198	48.401	10.132	72.75	-19.29	-83.53	-45.992	-18.0	-5.642	0.63608	0.31549	-0.50833	-0.48718	24.5	13113	100	54.54381986330913	1	0.032
2025-05-20 11:27:12.558	WT901BLE68(66B8CDDB35E6)	0.39	0.925	0.241	15.198	48.401	10.132	72.75	-19.27	-83.28	-45.992	-18.0	-5.642	0.63608	0.31549	-0.50833	-0.48718	24.5	13113	100	54.54381986330913	1	0.032
2025-05-20 11:27:12.617	WT901BLE68(66B8CDDB35E6)	0.39	0.93	0.271	16.296	50.903	15.015	72.74	-19.28	-83.0	-45.992	-18.0	-5.642	0.63608	0.31549	-0.50833	-0.48718	24.5	13113	100	54.54381986330913	1	0.091
2025-05-20 11:27:12.617	WT901BLE68(66B8CDDB35E6)	0.39	0.93	0.271	16.296	50.903	15.015	72.73	-19.29	-82.73	-45.992	-18.0	-5.642	0.63608	0.31549	-0.50833	-0.48718	24.5	13113	100	54.54381986330913	1	0.091
2025-05-20 11:27:12.617	WT901BLE68(66B8CDDB35E6)	0.39	0.93	0.271	16.296	50.903	15.015	72.73	-19.3	-82.45	-45.992	-18.0	-5.642	0.63608	0.31549	-0.50833	-0.48718	24.5	13113	100	54.54381986330913	1	0.091
2025-05-20 11:27:12.617	WT901BLE68(66B8CDDB35E6)	0.363	0.93	0.271	16.296	50.903	15.015	72.72	-19.3	-82.17	-45.992	-18.0	-5.642	0.63608	0.31549	-0.50833	-0.48718	24.5	13113	100	54.54381986330913	1	0.091
2025-05-20 11:27:12.617	WT901BLE68(66B8CDDB35E6)	0.363	0.919	0.276	18.494	51.636	21.545	72.72	-19.34	-81.89	-45.992	-18.0	-5.642	0.63608	0.31549	-0.50833	-0.48718	24.5	13113	100	54.54381986330913	1	0.091
2025-05-20 11:27:12.617	WT901BLE68(66B8CDDB35E6)	0.363	0.919	0.276	18.494	51.636	21.545	72.73	-19.37	-81.6	-45.992	-18.0	-5.642	0.63608	0.31549	-0.50833	-0.48718	24.5	13113	100	54.54381986330913	1	0.091
2025-05-20 11:27:12.617	WT901BLE68(66B8CDDB35E6)	0.363	0.919	0.276	18.494	51.636	21.545	72.73	-19.41	-81.31	-45.992	-18.0	-5.642	0.63608	0.31549	-0.50833	-0.48718	24.5	13113	100	54.54381986330913	1	0.091
2025-05-20 11:27:12.617	WT901BLE68(66B8CDDB35E6)	0.341	0.919	0.276	18.494	51.636	21.545	72.72	-19.45	-81.02	-45.992	-18.0	-5.642	0.63608	0.31549	-0.50833	-0.48718	24.5	13113	100	54.54381986330913	1	0.091
2025-05-20 11:27:12.651	WT901BLE68(66B8CDDB35E6)	0.341	0.91	0.263	22.644	52.063	22.583	72.75	-19.49	-80.74	-45.992	-18.0	-5.642	0.63608	0.31549	-0.50833	-0.48718	24.5	13113	100	54.54381986330913	1	0.125
2025-05-20 11:27:12.651	WT901BLE68(66B8CDDB35E6)	0.341	0.91	0.263	22.644	52.063	22.583	72.76	-19.53	-80.45	-45.992	-18.0	-5.642	0.63608	0.31549	-0.50833	-0.48718	24.5	13113	100	54.54381986330913	1	0.125
2025-05-20 11:27:12.651	WT901BLE68(66B8CDDB35E6)	0.341	0.91	0.263	22.644	52.063	22.583	72.78	-19.57	-80.16	-45.992	-18.0	-5.642	0.63608	0.31549	-0.50833	-0.48718	24.5	13113	100	54.54381986330913	1	0.125
2025-05-20 11:27:12.651	WT901BLE68(66B8CDDB35E6)	0.296	0.91	0.263	22.644	52.063	22.583	72.8	-19.61	-79.88	-45.992	-18.0	-5.642	0.63608	0.31549	-0.50833	-0.48718	24.5	13113	100	54.54381986330913	1	0.125
2025-05-20 11:27:12.651	WT901BLE68(66B8CDDB35E6)	0.296	0.942	0.245	20.203	54.871	22.339	72.8	-19.64	-79.57	-45.992	-18.0	-5.642	0.63608	0.31549	-0.50833	-0.48718	24.5	13113	100	54.54381986330913	1	0.125
2025-05-20 11:27:12.651	WT901BLE68(66B8CDDB35E6)	0.296	0.942	0.245	20.203	54.871	22.339	72.8	-19.67	-79.27	-45.992	-18.0	-5.642	0.63608	0.31549	-0.50833	-0.48718	24.5	13113	100	54.54381986330913	1	0.125
2025-05-20 11:27:12.651	WT901BLE68(66B8CDDB35E6)	0.309	0.942	0.245	20.203	54.871	22.339	72.8	-19.7	-78.98	-40.108	-19.292	-8.442	0.63608	0.31549	-0.50833	-0.48718	24.5	13113	100	54.54381986330913	1	0.125
2025-05-20 11:27:12.651	WT901BLE68(66B8CDDB35E6)	0.309	0.975	0.256	16.785	61.34	23.743	72.77	-19.73	-78.65	-40.108	-19.292	-8.442	0.63608	0.31549	-0.50833	-0.48718	24.5	13113	100	54.54381986330913	1	0.125
2025-05-20 11:27:12.677	WT901BLE68(66B8CDDB35E6)	0.309	0.975	0.256	16.785	61.34	23.743	72.75	-19.75	-78.32	-40.108	-19.292	-8.442	0.63608	0.31549	-0.50833	-0.48718	24.5	13113	100	54.54381986330913	1	0.151
2025-05-20 11:27:12.677	WT901BLE68(66B8CDDB35E6)	0.309	0.975	0.256	16.785	61.34	23.743	72.71	-19.78	-77.99	-40.108	-19.292	-8.442	0.63608	0.31549	-0.50833	-0.48718	24.5	13113	100	54.54381986330913	1	0.151
2025-05-20 11:27:12.677	WT901BLE68(66B8CDDB35E6)	0.303	0.975	0.256	16.785	61.34	23.743	72.69	-19.8	-77.66	-40.108	-19.292	-8.442	0.63608	0.31549	-0.50833	-0.48718	24.5	13113	100	54.54381986330913	1	0.151
2025-05-20 11:27:12.677	WT901BLE68(66B8CDDB35E6)	0.303	0.968	0.295	21.118	63.538	30.762	72.67	-19.86	-77.31	-40.108	-19.292	-8.442	0.63608	0.31549	-0.50833	-0.48718	24.5	13113	100	54.54381986330913	1	0.151
2025-05-20 11:27:12.677	WT901BLE68(66B8CDDB35E6)	0.303	0.968	0.295	21.118	63.538	30.762	72.66	-19.91	-76.96	-40.108	-19.292	-8.442	0.63608	0.31549	-0.50833	-0.48718	24.5	13113	100	54.54381986330913	1	0.151
2025-05-20 11:27:12.677	WT901BLE68(66B8CDDB35E6)	0.303	0.968	0.295	21.118	63.538	30.762	72.64	-19.96	-76.61	-40.108	-19.292	-8.442	0.63608	0.31549	-0.50833	-0.48718	24.5	13113	100	54.54381986330913	1	0.151
2025-05-20 11:27:12.677	WT901BLE68(66B8CDDB35E6)	0.293	0.968	0.295	21.118	63.538	30.762	72.63	-20.01	-76.26	-40.108	-19.292	-8.442	0.63608	0.31549	-0.50833	-0.48718	24.5	13113	100	54.54381986330913	1	0.151
2025-05-20 11:27:12.677	WT901BLE68(66B8CDDB35E6)	0.293	0.959	0.285	24.353	60.425	35.095	72.63	-20.09	-75.93	-40.108	-19.292	-8.442	0.63608	0.31549	-0.50833	-0.48718	24.5	13113	100	54.54381986330913	1	0.151
2025-05-20 11:27:12.736	WT901BLE68(66B8CDDB35E6)	0.293	0.959	0.285	24.353	60.425	35.095	72.63	-20.17	-75.59	-40.108	-19.292	-8.442	0.63608	0.31549	-0.50833	-0.48718	24.5	13113	100	54.54381986330913	1	0.21
2025-05-20 11:27:12.736	WT901BLE68(66B8CDDB35E6)	0.293	0.959	0.285	24.353	60.425	35.095	72.63	-20.24	-75.26	-40.108	-19.292	-8.442	0.63608	0.31549	-0.50833	-0.48718	24.5	13113	100	54.54381986330913	1	0.21
2025-05-20 11:27:12.736	WT901BLE68(66B8CDDB35E6)	0.282	0.959	0.285	24.353	60.425	35.095	72.63	-20.31	-74.92	-40.108	-19.292	-8.442	0.63608	0.31549	-0.50833	-0.48718	24.5	13113	100	54.54381986330913	1	0.21
2025-05-20 11:27:12.736	WT901BLE68(66B8CDDB35E6)	0.282	0.923	0.234	25.452	56.641	37.415	72.65	-20.41	-74.61	-40.108	-19.292	-8.442	0.63608	0.31549	-0.50833	-0.48718	24.5	13113	100	54.54381986330913	1	0.21
2025-05-20 11:27:12.736	WT901BLE68(66B8CDDB35E6)	0.282	0.923	0.234	25.452	56.641	37.415	72.66	-20.49	-74.29	-40.108	-19.292	-8.442	0.63608	0.31549	-0.50833	-0.48718	24.5	13113	100	54.54381986330913	1	0.21
2025-05-20 11:27:12.736	WT901BLE68(66B8CDDB35E6)	0.282	0.923	0.234	25.452	56.641	37.415	72.67	-20.58	-73.97	-40.108	-19.292	-8.442	0.63608	0.31549	-0.50833	-0.48718	24.5	13113	100	54.54381986330913	1	0.21
2025-05-20 11:27:12.736	WT901BLE68(66B8CDDB35E6)	0.23	0.923	0.234	25.452	56.641	37.415	72.67	-20.67	-73.66	-40.108	-19.292	-8.442	0.63608	0.31549	-0.50833	-0.48718	24.5	13113	100	54.54381986330913	1	0.21
2025-05-20 11:27:12.736	WT901BLE68(66B8CDDB35E6)	0.23	0.946	0.2	25.574	53.345	35.889	72.7	-20.76	-73.36	-40.108	-19.292	-8.442	0.63608	0.31549	-0.50833	-0.48718	24.5	13113	100	54.54381986330913	1	0.21
2025-05-20 11:27:12.765	WT901BLE68(66B8CDDB35E6)	0.23	0.946	0.2	25.574	53.345	35.889	72.71	-20.84	-73.07	-40.108	-19.292	-8.442	0.63608	0.31549	-0.50833	-0.48718	24.5	13113	100	54.54381986330913	1	0.239
2025-05-20 11:27:12.766	WT901BLE68(66B8CDDB35E6)	0.23	0.946	0.2	25.574	53.345	35.889	72.73	-20.93	-72.77	-40.108	-19.292	-8.442	0.63608	0.31549	-0.50833	-0.48718	24.5	13113	100	54.54381986330913	1	0.24
2025-05-20 11:27:12.766	WT901BLE68(66B8CDDB35E6)	0.192	0.946	0.2	25.574	53.345	35.889	72.75	-21.01	-72.48	-40.108	-19.292	-8.442	0.63608	0.31549	-0.50833	-0.48718	24.5	13113	100	54.54381986330913	1	0.24
2025-05-20 11:27:12.766	WT901BLE68(66B8CDDB35E6)	0.192	0.972	0.228	17.212	47.607	29.541	72.74	-21.07	-72.22	-40.108	-19.292	-8.442	0.63608	0.31549	-0.50833	-0.48718	24.5	13113	100	54.54381986330913	1	0.24
2025-05-20 11:27:12.766	WT901BLE68(66B8CDDB35E6)	0.192	0.972	0.228	17.212	47.607	29.541	72.73	-21.13	-71.97	-40.108	-19.292	-8.442	0.63608	0.31549	-0.50833	-0.48718	24.5	13113	100	54.54381986330913	1	0.24
2025-05-20 11:27:12.766	WT901BLE68(66B8CDDB35E6)	0.192	0.972	0.228	17.212	47.607	29.541	72.72	-21.19	-71.72	-40.108	-19.292	-8.442	0.63608	0.31549	-0.50833	-0.48718	24.5	13113	100	54.54381986330913	1	0.24
2025-05-20 11:27:12.766	WT901BLE68(66B8CDDB35E6)	0.091	0.972	0.228	17.212	47.607	29.541	72.71	-21.24	-71.47	-40.108	-19.292	-8.442	0.63608	0.31549	-0.50833	-0.48718	24.5	13113	100	54.54381986330913	1	0.24
2025-05-20 11:27:12.766	WT901BLE68(66B8CDDB35E6)	0.091	0.965	0.201	8.85	40.955	14.282	72.69	-21.24	-71.27	-40.108	-19.292	-8.442	0.63608	0.31549	-0.50833	-0.48718	24.5	13113	100	54.54381986330913	1	0.24
2025-05-20 11:27:12.794	WT901BLE68(66B8CDDB35E6)	0.091	0.965	0.201	8.85	40.955	14.282	72.65	-21.23	-71.08	-40.108	-19.292	-8.442	0.63608	0.31549	-0.50833	-0.48718	24.5	13113	100	54.54381986330913	1	0.268
2025-05-20 11:27:12.794	WT901BLE68(66B8CDDB35E6)	0.091	0.965	0.201	8.85	40.955	14.282	72.63	-21.21	-70.88	-40.108	-19.292	-8.442	0.63608	0.31549	-0.50833	-0.48718	24.5	13113	100	54.54381986330913	1	0.268
2025-05-20 11:27:12.794	WT901BLE68(66B8CDDB35E6)	0.069	0.965	0.201	8.85	40.955	14.282	72.6	-21.2	-70.69	-40.108	-19.292	-8.442	0.63608	0.31549	-0.50833	-0.48718	24.5	13113	100	54.54381986330913	1	0.268
2025-05-20 11:27:12.794	WT901BLE68(66B8CDDB35E6)	0.069	0.923	0.217	5.249	33.386	-0.427	72.58	-21.13	-70.57	-40.108	-19.292	-8.442	0.63608	0.31549	-0.50833	-0.48718	24.5	13113	100	54.54381986330913	1	0.268
2025-05-20 11:27:12.794	WT901BLE68(66B8CDDB35E6)	0.069	0.923	0.217	5.249	33.386	-0.427	72.55	-21.06	-70.43	-40.108	-19.292	-8.442	0.63608	0.31549	-0.50833	-0.48718	24.5	13113	100	54.54381986330913	1	0.268
2025-05-20 11:27:12.794	WT901BLE68(66B8CDDB35E6)	0.069	0.923	0.217	5.249	33.386	-0.427	72.54	-20.98	-70.31	-40.108	-19.292	-8.442	0.63608	0.31549	-0.50833	-0.48718	24.5	13113	100	54.54381986330913	1	0.268
2025-05-20 11:27:12.794	WT901BLE68(66B8CDDB35E6)	0.087	0.923	0.217	5.249	33.386	-0.427	72.52	-20.91	-70.18	-40.108	-19.292	-8.442	0.63608	0.31549	-0.50833	-0.48718	24.5	13113	100	54.54381986330913	1	0.268
2025-05-20 11:27:12.794	WT901BLE68(66B8CDDB35E6)	0.087	0.871	0.256	3.601	25.085	-5.432	72.5	-20.82	-70.1	-40.108	-19.292	-8.442	0.63608	0.31549	-0.50833	-0.48718	24.5	13113	100	68.11400041529248	1	0.268
2025-05-20 11:27:12.858	WT901BLE68(66B8CDDB35E6)	0.087	0.871	0.256	3.601	25.085	-5.432	72.49	-20.73	-70.03	-40.108	-19.292	-8.442	0.63608	0.31549	-0.50833	-0.48718	24.5	13113	100	68.11400041529248	1	0.332
2025-05-20 11:27:12.858	WT901BLE68(66B8CDDB35E6)	0.087	0.871	0.256	3.601	25.085	-5.432	72.48	-20.64	-69.96	-40.108	-19.292	-8.442	0.63608	0.31549	-0.50833	-0.48718	24.5	13113	100	68.11400041529248	1	0.332
2025-05-20 11:27:12.858	WT901BLE68(66B8CDDB35E6)	0.223	0.871	0.256	3.601	25.085	-5.432	72.47	-20.55	-69.89	-40.108	-19.292	-8.442	0.63608	0.31549	-0.50833	-0.48718	24.5	13113	100	68.11400041529248	1	0.332
2025-05-20 11:27:12.858	WT901BLE68(66B8CDDB35E6)	0.223	0.871	0.304	-0.244	13.977	2.014	72.46	-20.52	-69.86	-40.108	-19.292	-8.442	0.63608	0.31549	-0.50833	-0.48718	24.5	13113	100	68.11400041529248	1	0.332
2025-05-20 11:27:12.858	WT901BLE68(66B8CDDB35E6)	0.223	0.871	0.304	-0.244	13.977	2.014	72.44	-20.48	-69.83	-40.108	-19.292	-8.442	0.63608	0.31549	-0.50833	-0.48718	24.5	13113	100	68.11400041529248	1	0.332
2025-05-20 11:27:12.858	WT901BLE68(66B8CDDB35E6)	0.223	0.871	0.304	-0.244	13.977	2.014	72.43	-20.44	-69.8	-40.108	-19.292	-8.442	0.63608	0.31549	-0.50833	-0.48718	24.5	13113	100	68.11400041529248	1	0.332
2025-05-20 11:27:12.858	WT901BLE68(66B8CDDB35E6)	0.271	0.871	0.304	-0.244	13.977	2.014	72.41	-20.41	-69.77	-40.108	-19.292	-8.442	0.63608	0.31549	-0.50833	-0.48718	24.5	13113	100	68.11400041529248	1	0.332
2025-05-20 11:27:12.858	WT901BLE68(66B8CDDB35E6)	0.271	0.894	0.314	-3.662	0.732	6.836	72.4	-20.41	-69.81	-40.108	-19.292	-8.442	0.63608	0.31549	-0.50833	-0.48718	24.5	13113	100	68.11400041529248	1	0.332
2025-05-20 11:27:12.885	WT901BLE68(66B8CDDB35E6)	0.271	0.894	0.314	-3.662	0.732	6.836	72.38	-20.42	-69.84	-40.108	-19.292	-8.442	0.71112	0.39459	-0.44998	-0.3688	24.5	13113	100	50.70138605690858	1	0.359
2025-05-20 11:27:12.885	WT901BLE68(66B8CDDB35E6)	0.271	0.894	0.314	-3.662	0.732	6.836	72.37	-20.43	-69.87	-40.108	-19.292	-8.442	0.71112	0.39459	-0.44998	-0.3688	24.5	13113	100	50.70138605690858	1	0.359
2025-05-20 11:27:12.885	WT901BLE68(66B8CDDB35E6)	0.327	0.894	0.314	-3.662	0.732	6.836	72.36	-20.44	-69.9	-40.108	-19.292	-8.442	0.71112	0.39459	-0.44998	-0.3688	24.5	13113	100	50.70138605690858	1	0.359
2025-05-20 11:27:12.885	WT901BLE68(66B8CDDB35E6)	0.327	0.926	0.338	-6.348	-10.803	5.798	72.34	-20.46	-69.99	-40.108	-19.292	-8.442	0.71112	0.39459	-0.44998	-0.3688	24.5	13113	100	50.70138605690858	1	0.359
2025-05-20 11:27:12.885	WT901BLE68(66B8CDDB35E6)	0.327	0.926	0.338	-6.348	-10.803	5.798	72.34	-20.48	-70.09	-40.108	-19.292	-8.442	0.71112	0.39459	-0.44998	-0.3688	24.5	13113	100	50.70138605690858	1	0.359
2025-05-20 11:27:12.885	WT901BLE68(66B8CDDB35E6)	0.327	0.926	0.338	-6.348	-10.803	5.798	72.33	-20.51	-70.18	-40.108	-19.292	-8.442	0.71112	0.39459	-0.44998	-0.3688	24.5	13113	100	50.70138605690858	1	0.359
2025-05-20 11:27:12.885	WT901BLE68(66B8CDDB35E6)	0.398	0.926	0.338	-6.348	-10.803	5.798	72.32	-20.53	-70.27	-40.108	-19.292	-8.442	0.71112	0.39459	-0.44998	-0.3688	24.5	13113	100	50.70138605690858	1	0.359
2025-05-20 11:27:12.886	WT901BLE68(66B8CDDB35E6)	0.398	0.952	0.343	-6.592	-20.691	8.057	72.32	-20.58	-70.4	-40.108	-19.292	-8.442	0.71112	0.39459	-0.44998	-0.3688	24.5	13113	100	50.70138605690858	1	0.36
2025-05-20 11:27:12.915	WT901BLE68(66B8CDDB35E6)	0.398	0.952	0.343	-6.592	-20.691	8.057	72.33	-20.63	-70.54	-40.108	-19.292	-8.442	0.71112	0.39459	-0.44998	-0.3688	24.5	13113	100	50.70138605690858	1	0.389
2025-05-20 11:27:12.915	WT901BLE68(66B8CDDB35E6)	0.398	0.952	0.343	-6.592	-20.691	8.057	72.33	-20.69	-70.68	-40.108	-19.292	-8.442	0.71112	0.39459	-0.44998	-0.3688	24.5	13113	100	50.70138605690858	1	0.389
2025-05-20 11:27:12.915	WT901BLE68(66B8CDDB35E6)	0.443	0.952	0.343	-6.592	-20.691	8.057	72.33	-20.74	-70.81	-40.108	-19.292	-8.442	0.71112	0.39459	-0.44998	-0.3688	24.5	13113	100	50.70138605690858	1	0.389
2025-05-20 11:27:12.915	WT901BLE68(66B8CDDB35E6)	0.443	0.945	0.295	-1.465	-28.198	2.808	72.38	-20.78	-70.99	-40.108	-19.292	-8.442	0.71112	0.39459	-0.44998	-0.3688	24.5	13113	100	50.70138605690858	1	0.389
2025-05-20 11:27:12.915	WT901BLE68(66B8CDDB35E6)	0.443	0.945	0.295	-1.465	-28.198	2.808	72.42	-20.82	-71.17	-40.108	-19.292	-8.442	0.71112	0.39459	-0.44998	-0.3688	24.5	13113	100	50.70138605690858	1	0.389
2025-05-20 11:27:12.915	WT901BLE68(66B8CDDB35E6)	0.443	0.945	0.295	-1.465	-28.198	2.808	72.47	-20.86	-71.35	-40.108	-19.292	-8.442	0.71112	0.39459	-0.44998	-0.3688	24.5	13113	100	50.70138605690858	1	0.389
2025-05-20 11:27:12.915	WT901BLE68(66B8CDDB35E6)	0.45	0.945	0.295	-1.465	-28.198	2.808	72.51	-20.91	-71.53	-40.108	-19.292	-8.442	0.71112	0.39459	-0.44998	-0.3688	24.5	13113	100	50.70138605690858	1	0.389
2025-05-20 11:27:12.915	WT901BLE68(66B8CDDB35E6)	0.45	0.933	0.261	2.869	-31.372	-3.601	72.59	-20.93	-71.74	-40.108	-19.292	-8.442	0.71112	0.39459	-0.44998	-0.3688	24.5	13113	100	50.70138605690858	1	0.389
2025-05-20 11:27:12.974	WT901BLE68(66B8CDDB35E6)	0.45	0.933	0.261	2.869	-31.372	-3.601	72.66	-20.95	-71.94	-40.108	-19.292	-8.442	0.71112	0.39459	-0.44998	-0.3688	24.5	13113	100	50.70138605690858	1	0.448
2025-05-20 11:27:12.974	WT901BLE68(66B8CDDB35E6)	0.45	0.933	0.261	2.869	-31.372	-3.601	72.73	-20.97	-72.15	-40.108	-19.292	-8.442	0.71112	0.39459	-0.44998	-0.3688	24.5	13113	100	50.70138605690858	1	0.448
2025-05-20 11:27:12.974	WT901BLE68(66B8CDDB35E6)	0.408	0.933	0.261	2.869	-31.372	-3.601	72.81	-20.99	-72.35	-40.108	-19.292	-8.442	0.71112	0.39459	-0.44998	-0.3688	24.5	13113	100	50.70138605690858	1	0.448
2025-05-20 11:27:12.974	WT901BLE68(66B8CDDB35E6)	0.408	0.909	0.263	1.587	-27.222	-6.287	72.87	-20.99	-72.53	-40.108	-19.292	-8.442	0.71112	0.39459	-0.44998	-0.3688	24.5	13113	100	50.70138605690858	1	0.448
2025-05-20 11:27:12.974	WT901BLE68(66B8CDDB35E6)	0.408	0.909	0.263	1.587	-27.222	-6.287	72.94	-21.0	-72.71	-40.108	-19.292	-8.442	0.71112	0.39459	-0.44998	-0.3688	24.5	13113	100	50.70138605690858	1	0.448
2025-05-20 11:27:12.974	WT901BLE68(66B8CDDB35E6)	0.408	0.909	0.263	1.587	-27.222	-6.287	73.0	-21.01	-72.89	-40.108	-19.292	-8.442	0.71112	0.39459	-0.44998	-0.3688	24.5	13113	100	50.70138605690858	1	0.448
2025-05-20 11:27:12.974	WT901BLE68(66B8CDDB35E6)	0.352	0.909	0.263	1.587	-27.222	-6.287	73.06	-21.01	-73.08	-40.108	-19.292	-8.442	0.71112	0.39459	-0.44998	-0.3688	24.5	13113	100	50.70138605690858	1	0.448
2025-05-20 11:27:12.974	WT901BLE68(66B8CDDB35E6)	0.352	0.886	0.254	-4.089	-18.982	-3.235	73.08	-21.02	-73.21	-40.108	-19.292	-8.442	0.71112	0.39459	-0.44998	-0.3688	24.5	13113	100	50.70138605690858	1	0.448
2025-05-20 11:27:13.400	WT901BLE68(66B8CDDB35E6)	0.352	0.886	0.254	-4.089	-18.982	-3.235	73.09	-21.03	-73.35	-40.108	-19.292	-8.442	0.71112	0.39459	-0.44998	-0.3688	24.5	13113	100	50.70138605690858	1	0.874
2025-05-20 11:27:13.400	WT901BLE68(66B8CDDB35E6)	0.352	0.886	0.254	-4.089	-18.982	-3.235	73.11	-21.03	-73.48	-40.108	-19.292	-8.442	0.71112	0.39459	-0.44998	-0.3688	24.5	13113	100	50.70138605690858	1	0.874
2025-05-20 11:27:13.400	WT901BLE68(66B8CDDB35E6)	0.32	0.886	0.254	-4.089	-18.982	-3.235	73.13	-21.04	-73.62	-40.108	-19.292	-8.442	0.71112	0.39459	-0.44998	-0.3688	24.5	13113	100	50.70138605690858	1	0.874
2025-05-20 11:27:13.400	WT901BLE68(66B8CDDB35E6)	0.32	0.881	0.241	-7.935	-9.766	-0.061	73.11	-21.05	-73.7	-40.108	-19.292	-8.442	0.71112	0.39459	-0.44998	-0.3688	24.5	13113	100	50.70138605690858	1	0.874
2025-05-20 11:27:13.400	WT901BLE68(66B8CDDB35E6)	0.32	0.881	0.241	-7.935	-9.766	-0.061	73.09	-21.06	-73.78	-40.108	-19.292	-8.442	0.71112	0.39459	-0.44998	-0.3688	24.5	13113	100	50.70138605690858	1	0.874
2025-05-20 11:27:13.400	WT901BLE68(66B8CDDB35E6)	0.32	0.881	0.241	-7.935	-9.766	-0.061	73.07	-21.07	-73.86	-40.108	-19.292	-8.442	0.71112	0.39459	-0.44998	-0.3688	24.5	13113	100	50.70138605690858	1	0.874
2025-05-20 11:27:13.400	WT901BLE68(66B8CDDB35E6)	0.321	0.881	0.241	-7.935	-9.766	-0.061	73.05	-21.08	-73.94	-40.108	-19.292	-8.442	0.71112	0.39459	-0.44998	-0.3688	24.5	13113	100	50.70138605690858	1	0.874
2025-05-20 11:27:13.400	WT901BLE68(66B8CDDB35E6)	0.321	0.891	0.241	-8.606	-3.113	2.991	73.01	-21.09	-73.98	-40.108	-19.292	-8.442	0.71112	0.39459	-0.44998	-0.3688	24.5	13113	100	50.70138605690858	1	0.874
2025-05-20 11:27:13.360	WT901BLE68(66B8CDDB35E6)	0.321	0.891	0.241	-8.606	-3.113	2.991	72.98	-21.11	-74.01	-40.108	-19.292	-8.442	0.71112	0.39459	-0.44998	-0.3688	24.5	13113	100	50.70138605690858	1	0.834
2025-05-20 11:27:13.360	WT901BLE68(66B8CDDB35E6)	0.321	0.891	0.241	-8.606	-3.113	2.991	72.94	-21.13	-74.06	-40.108	-19.292	-8.442	0.71112	0.39459	-0.44998	-0.3688	24.5	13113	100	50.70138605690858	1	0.834
2025-05-20 11:27:13.360	WT901BLE68(66B8CDDB35E6)	0.333	0.891	0.241	-8.606	-3.113	2.991	72.91	-21.14	-74.1	-40.108	-19.292	-8.442	0.71112	0.39459	-0.44998	-0.3688	24.5	13113	100	50.70138605690858	1	0.834
2025-05-20 11:27:13.360	WT901BLE68(66B8CDDB35E6)	0.333	0.906	0.254	-5.676	-0.244	3.723	72.88	-21.15	-74.12	-40.108	-19.292	-8.442	0.71112	0.39459	-0.44998	-0.3688	24.5	13113	100	50.70138605690858	1	0.834
2025-05-20 11:27:13.360	WT901BLE68(66B8CDDB35E6)	0.333	0.906	0.254	-5.676	-0.244	3.723	72.85	-21.17	-74.15	-40.108	-19.292	-8.442	0.71112	0.39459	-0.44998	-0.3688	24.5	13113	100	50.70138605690858	1	0.834
2025-05-20 11:27:13.360	WT901BLE68(66B8CDDB35E6)	0.333	0.906	0.254	-5.676	-0.244	3.723	72.82	-21.18	-74.17	-40.108	-19.292	-8.442	0.71112	0.39459	-0.44998	-0.3688	24.5	13113	100	50.70138605690858	1	0.834
2025-05-20 11:27:13.360	WT901BLE68(66B8CDDB35E6)	0.351	0.906	0.254	-5.676	-0.244	3.723	72.8	-21.19	-74.2	-40.108	-19.292	-8.442	0.71112	0.39459	-0.44998	-0.3688	24.5	13113	100	50.70138605690858	1	0.834
2025-05-20 11:27:13.360	WT901BLE68(66B8CDDB35E6)	0.351	0.936	0.259	-1.587	0.244	2.197	72.79	-21.2	-74.22	-40.108	-19.292	-8.442	0.71112	0.39459	-0.44998	-0.3688	24.5	13113	100	50.70138605690858	1	0.834
2025-05-20 11:27:13.950	WT901BLE68(66B8CDDB35E6)	0.351	0.936	0.259	-1.587	0.244	2.197	72.78	-21.2	-74.25	-40.108	-19.292	-8.442	0.71112	0.39459	-0.44998	-0.3688	24.5	13113	100	50.70138605690858	1	1.424
2025-05-20 11:27:13.960	WT901BLE68(66B8CDDB35E6)	0.351	0.936	0.259	-1.587	0.244	2.197	72.78	-21.21	-74.28	-38.15	-19.483	-8.617	0.71112	0.39459	-0.44998	-0.3688	24.5	13113	100	50.70138605690858	1	1.434
2025-05-20 11:27:13.960	WT901BLE68(66B8CDDB35E6)	0.372	0.936	0.259	-1.587	0.244	2.197	72.77	-21.21	-74.3	-38.15	-19.483	-8.617	0.71112	0.39459	-0.44998	-0.3688	24.5	13113	100	50.70138605690858	1	1.434
2025-05-20 11:27:13.960	WT901BLE68(66B8CDDB35E6)	0.372	0.959	0.262	0.671	0.305	1.465	72.78	-21.21	-74.33	-38.15	-19.483	-8.617	0.71112	0.39459	-0.44998	-0.3688	24.5	13113	100	50.70138605690858	1	1.434
2025-05-20 11:27:13.960	WT901BLE68(66B8CDDB35E6)	0.372	0.959	0.262	0.671	0.305	1.465	72.78	-21.22	-74.35	-38.15	-19.483	-8.617	0.71112	0.39459	-0.44998	-0.3688	24.5	13113	100	50.70138605690858	1	1.434
2025-05-20 11:27:13.960	WT901BLE68(66B8CDDB35E6)	0.372	0.959	0.262	0.671	0.305	1.465	72.79	-21.22	-74.38	-38.15	-19.483	-8.617	0.71112	0.39459	-0.44998	-0.3688	24.5	13113	100	50.70138605690858	1	1.434
2025-05-20 11:27:13.960	WT901BLE68(66B8CDDB35E6)	0.366	0.959	0.262	0.671	0.305	1.465	72.8	-21.23	-74.4	-38.15	-19.483	-8.617	0.71112	0.39459	-0.44998	-0.3688	24.5	13113	100	50.70138605690858	1	1.434
2025-05-20 11:27:13.960	WT901BLE68(66B8CDDB35E6)	0.366	0.938	0.267	0.488	0.488	1.343	72.81	-21.23	-74.43	-38.15	-19.483	-8.617	0.71112	0.39459	-0.44998	-0.3688	24.5	13113	100	50.70138605690858	1	1.434
2025-05-20 11:27:13.124	WT901BLE68(66B8CDDB35E6)	0.366	0.938	0.267	0.488	0.488	1.343	72.81	-21.23	-74.45	-38.15	-19.483	-8.617	0.71112	0.39459	-0.44998	-0.3688	24.5	13113	100	50.70138605690858	1	0.598
2025-05-20 11:27:13.125	WT901BLE68(66B8CDDB35E6)	0.366	0.938	0.267	0.488	0.488	1.343	72.81	-21.23	-74.48	-38.15	-19.483	-8.617	0.71112	0.39459	-0.44998	-0.3688	24.5	13113	100	50.70138605690858	1	0.599
2025-05-20 11:27:13.125	WT901BLE68(66B8CDDB35E6)	0.364	0.938	0.267	0.488	0.488	1.343	72.82	-21.23	-74.5	-38.15	-19.483	-8.617	0.71112	0.39459	-0.44998	-0.3688	24.5	13113	100	50.70138605690858	1	0.599
2025-05-20 11:27:13.125	WT901BLE68(66B8CDDB35E6)	0.364	0.91	0.261	-1.221	0.244	1.099	72.82	-21.23	-74.53	-38.15	-19.483	-8.617	0.71112	0.39459	-0.44998	-0.3688	24.5	13113	100	50.70138605690858	1	0.599
2025-05-20 11:27:13.125	WT901BLE68(66B8CDDB35E6)	0.364	0.91	0.261	-1.221	0.244	1.099	72.81	-21.24	-74.55	-38.15	-19.483	-8.617	0.71112	0.39459	-0.44998	-0.3688	24.5	13113	100	50.70138605690858	1	0.599
2025-05-20 11:27:13.125	WT901BLE68(66B8CDDB35E6)	0.364	0.91	0.261	-1.221	0.244	1.099	72.81	-21.24	-74.57	-38.15	-19.483	-8.617	0.71112	0.39459	-0.44998	-0.3688	24.5	13113	100	50.70138605690858	1	0.599
2025-05-20 11:27:13.125	WT901BLE68(66B8CDDB35E6)	0.366	0.91	0.261	-1.221	0.244	1.099	72.81	-21.24	-74.59	-38.15	-19.483	-8.617	0.71112	0.39459	-0.44998	-0.3688	24.5	13113	100	50.70138605690858	1	0.599
2025-05-20 11:27:13.125	WT901BLE68(66B8CDDB35E6)	0.366	0.897	0.261	-4.211	-0.366	0.854	72.79	-21.24	-74.62	-38.15	-19.483	-8.617	0.71112	0.39459	-0.44998	-0.3688	24.5	13113	100	50.70138605690858	1	0.599
2025-05-20 11:27:13.155	WT901BLE68(66B8CDDB35E6)	0.366	0.897	0.261	-4.211	-0.366	0.854	72.77	-21.24	-74.65	-38.15	-19.483	-8.617	0.71112	0.39459	-0.44998	-0.3688	24.5	13113	100	50.70138605690858	1	0.629
2025-05-20 11:27:13.155	WT901BLE68(66B8CDDB35E6)	0.366	0.897	0.261	-4.211	-0.366	0.854	72.76	-21.24	-74.67	-38.15	-19.483	-8.617	0.71112	0.39459	-0.44998	-0.3688	24.5	13113	100	50.70138605690858	1	0.629
2025-05-20 11:27:13.155	WT901BLE68(66B8CDDB35E6)	0.366	0.897	0.261	-4.211	-0.366	0.854	72.74	-21.25	-74.7	-38.15	-19.483	-8.617	0.71112	0.39459	-0.44998	-0.3688	24.5	13113	100	50.70138605690858	1	0.629
2025-05-20 11:27:13.155	WT901BLE68(66B8CDDB35E6)	0.366	0.892	0.257	-6.287	-1.282	-0.183	72.71	-21.25	-74.74	-38.15	-19.483	-8.617	0.71112	0.39459	-0.44998	-0.3688	24.5	13113	100	50.70138605690858	1	0.629
2025-05-20 11:27:13.155	WT901BLE68(66B8CDDB35E6)	0.366	0.892	0.257	-6.287	-1.282	-0.183	72.69	-21.24	-74.77	-38.15	-19.483	-8.617	0.71112	0.39459	-0.44998	-0.3688	24.5	13113	100	50.70138605690858	1	0.629
2025-05-20 11:27:13.155	WT901BLE68(66B8CDDB35E6)	0.366	0.892	0.257	-6.287	-1.282	-0.183	72.67	-21.24	-74.81	-38.15	-19.483	-8.617	0.71112	0.39459	-0.44998	-0.3688	24.5	13113	100	50.70138605690858	1	0.629
2025-05-20 11:27:13.155	WT901BLE68(66B8CDDB35E6)	0.366	0.892	0.257	-6.287	-1.282	-0.183	72.64	-21.24	-74.85	-38.15	-19.483	-8.617	0.71112	0.39459	-0.44998	-0.3688	24.5	13113	100	50.70138605690858	1	0.629
2025-05-20 11:27:13.155	WT901BLE68(66B8CDDB35E6)	0.366	0.888	0.255	-6.836	-3.235	-1.953	72.62	-21.24	-74.9	-38.15	-19.483	-8.617	0.71112	0.39459	-0.44998	-0.3688	24.5	13113	100	50.70138605690858	1	0.629
2025-05-20 11:27:13.215	WT901BLE68(66B8CDDB35E6)	0.366	0.888	0.255	-6.836	-3.235	-1.953	72.6	-21.23	-74.95	-38.15	-19.483	-8.617	0.71112	0.39459	-0.44998	-0.3688	24.5	13113	100	50.70138605690858	1	0.689
2025-05-20 11:27:13.215	WT901BLE68(66B8CDDB35E6)	0.366	0.888	0.255	-6.836	-3.235	-1.953	72.58	-21.23	-74.99	-38.15	-19.483	-8.617	0.71112	0.39459	-0.44998	-0.3688	24.5	13113	100	50.70138605690858	1	0.689
2025-05-20 11:27:13.215	WT901BLE68(66B8CDDB35E6)	0.379	0.888	0.255	-6.836	-3.235	-1.953	72.55	-21.22	-75.04	-38.15	-19.483	-8.617	0.71112	0.39459	-0.44998	-0.3688	24.5	13113	100	50.70138605690858	1	0.689
2025-05-20 11:27:13.215	WT901BLE68(66B8CDDB35E6)	0.379	0.893	0.262	-5.798	-5.188	-3.113	72.54	-21.21	-75.1	-38.15	-19.483	-8.617	0.71112	0.39459	-0.44998	-0.3688	24.5	13113	100	50.70138605690858	1	0.689
2025-05-20 11:27:13.215	WT901BLE68(66B8CDDB35E6)	0.379	0.893	0.262	-5.798	-5.188	-3.113	72.53	-21.2	-75.16	-38.15	-19.483	-8.617	0.71112	0.39459	-0.44998	-0.3688	24.5	13113	100	47.80732076611984	1	0.689
2025-05-20 11:27:13.215	WT901BLE68(66B8CDDB35E6)	0.379	0.893	0.262	-5.798	-5.188	-3.113	72.51	-21.2	-75.22	-38.15	-19.483	-8.617	0.71112	0.39459	-0.44998	-0.3688	24.5	13113	100	47.80732076611984	1	0.689
2025-05-20 11:27:13.215	WT901BLE68(66B8CDDB35E6)	0.382	0.893	0.262	-5.798	-5.188	-3.113	72.5	-21.19	-75.28	-38.15	-19.483	-8.617	0.71112	0.39459	-0.44998	-0.3688	24.5	13113	100	47.80732076611984	1	0.689
2025-05-20 11:27:13.215	WT901BLE68(66B8CDDB35E6)	0.382	0.898	0.26	-5.981	-5.737	-3.052	72.49	-21.19	-75.34	-38.15	-19.483	-8.617	0.71112	0.39459	-0.44998	-0.3688	24.5	13113	100	47.80732076611984	1	0.689
2025-05-20 11:27:13.246	WT901BLE68(66B8CDDB35E6)	0.382	0.898	0.26	-5.981	-5.737	-3.052	72.47	-21.18	-75.39	-38.15	-19.483	-8.617	0.71112	0.39459	-0.44998	-0.3688	24.5	13113	100	47.80732076611984	1	0.72
2025-05-20 11:27:13.246	WT901BLE68(66B8CDDB35E6)	0.382	0.898	0.26	-5.981	-5.737	-3.052	72.46	-21.17	-75.45	-38.15	-19.483	-8.617	0.71112	0.39459	-0.44998	-0.3688	24.5	13113	100	47.80732076611984	1	0.72
2025-05-20 11:27:13.246	WT901BLE68(66B8CDDB35E6)	0.376	0.898	0.26	-5.981	-5.737	-3.052	72.44	-21.17	-75.51	-38.15	-19.483	-8.617	0.71112	0.39459	-0.44998	-0.3688	24.5	13113	100	47.80732076611984	1	0.72
2025-05-20 11:27:13.246	WT901BLE68(66B8CDDB35E6)	0.376	0.905	0.261	-7.202	-5.066	-1.953	72.43	-21.17	-75.56	-38.15	-19.483	-8.617	0.71112	0.39459	-0.44998	-0.3688	24.5	13113	100	47.80732076611984	1	0.72
2025-05-20 11:27:13.246	WT901BLE68(66B8CDDB35E6)	0.376	0.905	0.261	-7.202	-5.066	-1.953	72.41	-21.17	-75.62	-38.15	-19.483	-8.617	0.71112	0.39459	-0.44998	-0.3688	24.5	13113	100	47.80732076611984	1	0.72
2025-05-20 11:27:13.246	WT901BLE68(66B8CDDB35E6)	0.376	0.905	0.261	-7.202	-5.066	-1.953	72.38	-21.17	-75.67	-38.15	-19.483	-8.617	0.69302	0.36746	-0.47308	-0.40094	24.5	13113	100	53.06395176372751	1	0.72
2025-05-20 11:27:13.246	WT901BLE68(66B8CDDB35E6)	0.366	0.905	0.261	-7.202	-5.066	-1.953	72.36	-21.17	-75.72	-38.15	-19.483	-8.617	0.69302	0.36746	-0.47308	-0.40094	24.5	13113	100	53.06395176372751	1	0.72
2025-05-20 11:27:13.246	WT901BLE68(66B8CDDB35E6)	0.366	0.905	0.271	-7.629	-5.066	-0.61	72.34	-21.17	-75.77	-38.15	-19.483	-8.617	0.69302	0.36746	-0.47308	-0.40094	24.5	13113	100	53.06395176372751	1	0.72
2025-05-20 11:27:13.275	WT901BLE68(66B8CDDB35E6)	0.366	0.905	0.271	-7.629	-5.066	-0.61	72.31	-21.18	-75.82	-38.15	-19.483	-8.617	0.69302	0.36746	-0.47308	-0.40094	24.5	13113	100	53.06395176372751	1	0.749
2025-05-20 11:27:13.275	WT901BLE68(66B8CDDB35E6)	0.369	0.905	0.271	-7.629	-5.066	-0.61	72.29	-21.18	-75.87	-38.15	-19.483	-8.617	0.69302	0.36746	-0.47308	-0.40094	24.5	13113	100	53.06395176372751	1	0.749
2025-05-20 11:27:13.275	WT901BLE68(66B8CDDB35E6)	0.369	0.911	0.269	-7.629	-4.944	0.61	72.27	-21.19	-75.92	-38.15	-19.483	-8.617	0.69302	0.36746	-0.47308	-0.40094	24.5	13113	100	53.06395176372751	1	0.749
2025-05-20 11:27:13.275	WT901BLE68(66B8CDDB35E6)	0.369	0.911	0.269	-7.629	-4.944	0.61	72.24	-21.2	-75.96	-38.15	-19.483	-8.617	0.69302	0.36746	-0.47308	-0.40094	24.5	13113	100	53.06395176372751	1	0.749
2025-05-20 11:27:13.275	WT901BLE68(66B8CDDB35E6)	0.369	0.911	0.269	-7.629	-4.944	0.61	72.22	-21.21	-76.01	-38.15	-19.483	-8.617	0.69302	0.36746	-0.47308	-0.40094	24.5	13113	100	53.06395176372751	1	0.749
2025-05-20 11:27:13.275	WT901BLE68(66B8CDDB35E6)	0.38	0.911	0.269	-7.629	-4.944	0.61	72.19	-21.23	-76.05	-38.15	-19.483	-8.617	0.69302	0.36746	-0.47308	-0.40094	24.5	13113	100	53.06395176372751	1	0.749
2025-05-20 11:27:13.275	WT901BLE68(66B8CDDB35E6)	0.38	0.911	0.278	-7.019	-4.883	1.282	72.17	-21.24	-76.1	-38.15	-19.483	-8.617	0.69302	0.36746	-0.47308	-0.40094	24.5	13113	100	53.06395176372751	1	0.749
2025-05-20 11:27:13.275	WT901BLE68(66B8CDDB35E6)	0.38	0.911	0.278	-7.019	-4.883	1.282	72.15	-21.25	-76.15	-38.15	-19.483	-8.617	0.69302	0.36746	-0.47308	-0.40094	24.5	13113	100	53.06395176372751	1	0.749
2025-05-20 11:27:13.335	WT901BLE68(66B8CDDB35E6)	0.38	0.911	0.278	-7.019	-4.883	1.282	72.13	-21.27	-76.19	-38.15	-19.483	-8.617	0.69302	0.36746	-0.47308	-0.40094	24.5	13113	100	53.06395176372751	1	0.809
2025-05-20 11:27:13.335	WT901BLE68(66B8CDDB35E6)	0.391	0.911	0.278	-7.019	-4.883	1.282	72.1	-21.28	-76.23	-38.15	-19.483	-8.617	0.69302	0.36746	-0.47308	-0.40094	24.5	13113	100	53.06395176372751	1	0.809
2025-05-20 11:27:13.335	WT901BLE68(66B8CDDB35E6)	0.391	0.901	0.283	-7.141	-3.845	1.16	72.08	-21.29	-76.28	-38.15	-19.483	-8.617	0.69302	0.36746	-0.47308	-0.40094	24.5	13113	100	53.06395176372751	1	0.809
2025-05-20 11:27:13.335	WT901BLE68(66B8CDDB35E6)	0.391	0.901	0.283	-7.141	-3.845	1.16	72.05	-21.31	-76.32	-38.15	-19.483	-8.617	0.69302	0.36746	-0.47308	-0.40094	24.5	13113	100	53.06395176372751	1	0.809
2025-05-20 11:27:13.335	WT901BLE68(66B8CDDB35E6)	0.391	0.901	0.283	-7.141	-3.845	1.16	72.03	-21.32	-76.36	-38.15	-19.483	-8.617	0.69302	0.36746	-0.47308	-0.40094	24.5	13113	100	53.06395176372751	1	0.809
2025-05-20 11:27:13.335	WT901BLE68(66B8CDDB35E6)	0.392	0.901	0.283	-7.141	-3.845	1.16	72.0	-21.33	-76.4	-38.15	-19.483	-8.617	0.69302	0.36746	-0.47308	-0.40094	24.5	13113	100	53.06395176372751	1	0.809
2025-05-20 11:27:13.335	WT901BLE68(66B8CDDB35E6)	0.392	0.893	0.284	-7.69	-2.38	0.244	71.97	-21.34	-76.43	-38.15	-19.483	-8.617	0.69302	0.36746	-0.47308	-0.40094	24.5	13113	100	53.06395176372751	1	0.809
2025-05-20 11:27:13.335	WT901BLE68(66B8CDDB35E6)	0.392	0.893	0.284	-7.69	-2.38	0.244	71.94	-21.35	-76.47	-38.15	-19.483	-8.617	0.69302	0.36746	-0.47308	-0.40094	24.5	13113	100	53.06395176372751	1	0.809
2025-05-20 11:27:13.365	WT901BLE68(66B8CDDB35E6)	0.392	0.893	0.284	-7.69	-2.38	0.244	71.91	-21.35	-76.5	-38.15	-19.483	-8.617	0.69302	0.36746	-0.47308	-0.40094	24.5	13113	100	53.06395176372751	1	0.839
2025-05-20 11:27:13.365	WT901BLE68(66B8CDDB35E6)	0.387	0.893	0.284	-7.69	-2.38	0.244	71.88	-21.36	-76.54	-38.15	-19.483	-8.617	0.69302	0.36746	-0.47308	-0.40094	24.5	13113	100	53.06395176372751	1	0.839
2025-05-20 11:27:13.365	WT901BLE68(66B8CDDB35E6)	0.387	0.887	0.293	-7.874	-2.625	-0.977	71.85	-21.36	-76.57	-38.15	-19.483	-8.617	0.69302	0.36746	-0.47308	-0.40094	24.5	13113	100	53.06395176372751	1	0.839
2025-05-20 11:27:13.365	WT901BLE68(66B8CDDB35E6)	0.387	0.887	0.293	-7.874	-2.625	-0.977	71.82	-21.36	-76.61	-38.15	-19.483	-8.617	0.69302	0.36746	-0.47308	-0.40094	24.5	13113	100	53.06395176372751	1	0.839
2025-05-20 11:27:13.365	WT901BLE68(66B8CDDB35E6)	0.387	0.887	0.293	-7.874	-2.625	-0.977	71.79	-21.36	-76.64	-38.15	-19.483	-8.617	0.69302	0.36746	-0.47308	-0.40094	24.5	13113	100	53.06395176372751	1	0.839
2025-05-20 11:27:13.365	WT901BLE68(66B8CDDB35E6)	0.382	0.887	0.293	-7.874	-2.625	-0.977	71.76	-21.36	-76.67	-38.15	-19.483	-8.617	0.69302	0.36746	-0.47308	-0.40094	24.5	13113	100	53.06395176372751	1	0.839
2025-05-20 11:27:13.365	WT901BLE68(66B8CDDB35E6)	0.382	0.887	0.288	-8.789	-2.686	-1.709	71.72	-21.36	-76.71	-38.15	-19.483	-8.617	0.69302	0.36746	-0.47308	-0.40094	24.5	13113	100	53.06395176372751	1	0.839
2025-05-20 11:27:13.365	WT901BLE68(66B8CDDB35E6)	0.382	0.887	0.288	-8.789	-2.686	-1.709	71.69	-21.36	-76.75	-38.15	-19.483	-8.617	0.69302	0.36746	-0.47308	-0.40094	24.5	13113	100	53.06395176372751	1	0.839
2025-05-20 11:27:13.395	WT901BLE68(66B8CDDB35E6)	0.382	0.887	0.288	-8.789	-2.686	-1.709	71.66	-21.36	-76.78	-38.15	-19.483	-8.617	0.69302	0.36746	-0.47308	-0.40094	24.5	13113	100	53.06395176372751	1	0.869
2025-05-20 11:27:13.395	WT901BLE68(66B8CDDB35E6)	0.377	0.887	0.288	-8.789	-2.686	-1.709	71.63	-21.35	-76.82	-38.15	-19.483	-8.617	0.69302	0.36746	-0.47308	-0.40094	24.5	13113	100	53.06395176372751	1	0.869
2025-05-20 11:27:13.395	WT901BLE68(66B8CDDB35E6)	0.377	0.894	0.273	-10.132	-0.305	-1.404	71.58	-21.35	-76.84	-38.15	-19.483	-8.617	0.69302	0.36746	-0.47308	-0.40094	24.5	13113	100	53.06395176372751	1	0.869
2025-05-20 11:27:13.395	WT901BLE68(66B8CDDB35E6)	0.377	0.894	0.273	-10.132	-0.305	-1.404	71.53	-21.35	-76.87	-38.15	-19.483	-8.617	0.69302	0.36746	-0.47308	-0.40094	24.5	13113	100	53.06395176372751	1	0.869
2025-05-20 11:27:13.395	WT901BLE68(66B8CDDB35E6)	0.377	0.894	0.273	-10.132	-0.305	-1.404	71.49	-21.34	-76.89	-38.15	-19.483	-8.617	0.69302	0.36746	-0.47308	-0.40094	24.5	13113	100	53.06395176372751	1	0.869
2025-05-20 11:27:13.395	WT901BLE68(66B8CDDB35E6)	0.374	0.894	0.273	-10.132	-0.305	-1.404	71.44	-21.34	-76.91	-38.15	-19.483	-8.617	0.69302	0.36746	-0.47308	-0.40094	24.5	13113	100	53.06395176372751	1	0.869
2025-05-20 11:27:13.395	WT901BLE68(66B8CDDB35E6)	0.374	0.899	0.278	-11.169	1.221	-0.61	71.39	-21.34	-76.93	-38.15	-19.483	-8.617	0.69302	0.36746	-0.47308	-0.40094	24.5	13113	100	53.06395176372751	1	0.869
2025-05-20 11:27:13.395	WT901BLE68(66B8CDDB35E6)	0.374	0.899	0.278	-11.169	1.221	-0.61	71.33	-21.33	-76.94	-38.15	-19.483	-8.617	0.69302	0.36746	-0.47308	-0.40094	24.5	13113	100	53.06395176372751	1	0.869
2025-05-20 11:27:13.456	WT901BLE68(66B8CDDB35E6)	0.374	0.899	0.278	-11.169	1.221	-0.61	71.28	-21.33	-76.94	-38.15	-19.483	-8.617	0.69302	0.36746	-0.47308	-0.40094	24.5	13113	100	53.06395176372751	1	0.93
2025-05-20 11:27:13.456	WT901BLE68(66B8CDDB35E6)	0.365	0.899	0.278	-11.169	1.221	-0.61	71.23	-21.32	-76.95	-38.15	-19.483	-8.617	0.69302	0.36746	-0.47308	-0.40094	24.5	13113	100	53.06395176372751	1	0.93
2025-05-20 11:27:13.456	WT901BLE68(66B8CDDB35E6)	0.365	0.899	0.285	-10.498	0.977	-0.183	71.18	-21.32	-76.97	-38.15	-19.483	-8.617	0.69302	0.36746	-0.47308	-0.40094	24.5	13113	100	53.06395176372751	1	0.93
2025-05-20 11:27:13.456	WT901BLE68(66B8CDDB35E6)	0.365	0.899	0.285	-10.498	0.977	-0.183	71.13	-21.32	-76.98	-38.15	-19.483	-8.617	0.69302	0.36746	-0.47308	-0.40094	24.5	13113	100	53.06395176372751	1	0.93
2025-05-20 11:27:13.456	WT901BLE68(66B8CDDB35E6)	0.365	0.899	0.285	-10.498	0.977	-0.183	71.08	-21.32	-76.99	-38.15	-19.483	-8.617	0.69302	0.36746	-0.47308	-0.40094	24.5	13113	100	53.06395176372751	1	0.93
2025-05-20 11:27:13.456	WT901BLE68(66B8CDDB35E6)	0.358	0.899	0.285	-10.498	0.977	-0.183	71.03	-21.32	-77.01	-38.15	-19.483	-8.617	0.69302	0.36746	-0.47308	-0.40094	24.5	13113	100	53.06395176372751	1	0.93
2025-05-20 11:27:13.456	WT901BLE68(66B8CDDB35E6)	0.358	0.9	0.288	-9.583	0.183	0.0	70.99	-21.32	-77.03	-38.15	-19.483	-8.617	0.69302	0.36746	-0.47308	-0.40094	24.5	13113	100	53.06395176372751	1	0.93
2025-05-20 11:27:13.456	WT901BLE68(66B8CDDB35E6)	0.358	0.9	0.288	-9.583	0.183	0.0	70.94	-21.32	-77.04	-38.175	-18.875	-10.217	0.69302	0.36746	-0.47308	-0.40094	24.5	13113	100	53.06395176372751	1	0.93
2025-05-20 11:27:13.486	WT901BLE68(66B8CDDB35E6)	0.358	0.9	0.288	-9.583	0.183	0.0	70.9	-21.33	-77.05	-38.175	-18.875	-10.217	0.69302	0.36746	-0.47308	-0.40094	24.5	13113	100	53.06395176372751	1	0.96
2025-05-20 11:27:13.486	WT901BLE68(66B8CDDB35E6)	0.354	0.9	0.288	-9.583	0.183	0.0	70.86	-21.33	-77.06	-38.175	-18.875	-10.217	0.69302	0.36746	-0.47308	-0.40094	24.5	13113	100	53.06395176372751	1	0.96
2025-05-20 11:27:13.486	WT901BLE68(66B8CDDB35E6)	0.354	0.902	0.298	-8.85	-0.854	-0.244	70.82	-21.33	-77.08	-38.175	-18.875	-10.217	0.69302	0.36746	-0.47308	-0.40094	24.5	13113	100	53.06395176372751	1	0.96
2025-05-20 11:27:13.486	WT901BLE68(66B8CDDB35E6)	0.354	0.902	0.298	-8.85	-0.854	-0.244	70.78	-21.33	-77.1	-38.175	-18.875	-10.217	0.69302	0.36746	-0.47308	-0.40094	24.5	13113	100	53.06395176372751	1	0.96
2025-05-20 11:27:13.486	WT901BLE68(66B8CDDB35E6)	0.354	0.902	0.298	-8.85	-0.854	-0.244	70.75	-21.33	-77.11	-38.175	-18.875	-10.217	0.69302	0.36746	-0.47308	-0.40094	24.5	13113	100	53.06395176372751	1	0.96
2025-05-20 11:27:13.486	WT901BLE68(66B8CDDB35E6)	0.357	0.902	0.298	-8.85	-0.854	-0.244	70.71	-21.33	-77.13	-38.175	-18.875	-10.217	0.69302	0.36746	-0.47308	-0.40094	24.5	13113	100	53.06395176372751	1	0.96
2025-05-20 11:27:13.486	WT901BLE68(66B8CDDB35E6)	0.357	0.9	0.308	-9.277	-1.221	-0.854	70.67	-21.33	-77.15	-38.175	-18.875	-10.217	0.69302	0.36746	-0.47308	-0.40094	24.5	13113	100	53.06395176372751	1	0.96
2025-05-20 11:27:13.486	WT901BLE68(66B8CDDB35E6)	0.357	0.9	0.308	-9.277	-1.221	-0.854	70.63	-21.33	-77.17	-38.175	-18.875	-10.217	0.69302	0.36746	-0.47308	-0.40094	24.5	13113	100	53.06395176372751	1	0.96
2025-05-20 11:27:13.515	WT901BLE68(66B8CDDB35E6)	0.357	0.9	0.308	-9.277	-1.221	-0.854	70.59	-21.32	-77.2	-38.175	-18.875	-10.217	0.69302	0.36746	-0.47308	-0.40094	24.5	13113	100	53.06395176372751	1	0.989
2025-05-20 11:27:13.515	WT901BLE68(66B8CDDB35E6)	0.359	0.9	0.308	-9.277	-1.221	-0.854	70.55	-21.32	-77.22	-38.175	-18.875	-10.217	0.69302	0.36746	-0.47308	-0.40094	24.5	13113	100	53.06395176372751	1	0.989
2025-05-20 11:27:13.515	WT901BLE68(66B8CDDB35E6)	0.359	0.898	0.317	-11.475	0.305	-0.793	70.5	-21.32	-77.23	-38.175	-18.875	-10.217	0.69302	0.36746	-0.47308	-0.40094	24.5	13113	100	53.06395176372751	1	0.989
2025-05-20 11:27:13.515	WT901BLE68(66B8CDDB35E6)	0.359	0.898	0.317	-11.475	0.305	-0.793	70.45	-21.31	-77.25	-38.175	-18.875	-10.217	0.69302	0.36746	-0.47308	-0.40094	24.5	13113	100	53.06395176372751	1	0.989
2025-05-20 11:27:13.515	WT901BLE68(66B8CDDB35E6)	0.359	0.898	0.317	-11.475	0.305	-0.793	70.4	-21.31	-77.27	-38.175	-18.875	-10.217	0.69302	0.36746	-0.47308	-0.40094	24.5	13113	100	53.06395176372751	1	0.989
2025-05-20 11:27:13.515	WT901BLE68(66B8CDDB35E6)	0.359	0.898	0.317	-11.475	0.305	-0.793	70.35	-21.31	-77.28	-38.175	-18.875	-10.217	0.69302	0.36746	-0.47308	-0.40094	24.5	13113	100	53.06395176372751	1	0.989
2025-05-20 11:27:13.515	WT901BLE68(66B8CDDB35E6)	0.359	0.892	0.325	-13.428	1.282	-0.732	70.28	-21.3	-77.29	-38.175	-18.875	-10.217	0.69302	0.36746	-0.47308	-0.40094	24.5	13113	100	53.06395176372751	1	0.989
2025-05-20 11:27:13.515	WT901BLE68(66B8CDDB35E6)	0.359	0.892	0.325	-13.428	1.282	-0.732	70.22	-21.29	-77.31	-38.175	-18.875	-10.217	0.69302	0.36746	-0.47308	-0.40094	24.5	13113	100	53.06395176372751	1	0.989
2025-05-20 11:27:13.573	WT901BLE68(66B8CDDB35E6)	0.359	0.892	0.325	-13.428	1.282	-0.732	70.15	-21.29	-77.32	-38.175	-18.875	-10.217	0.69302	0.36746	-0.47308	-0.40094	24.5	13113	100	53.06395176372751	1	1.047
2025-05-20 11:27:13.573	WT901BLE68(66B8CDDB35E6)	0.359	0.892	0.325	-13.428	1.282	-0.732	70.09	-21.28	-77.33	-38.175	-18.875	-10.217	0.69302	0.36746	-0.47308	-0.40094	24.5	13113	100	53.06395176372751	1	1.047
2025-05-20 11:27:13.573	WT901BLE68(66B8CDDB35E6)	0.359	0.884	0.327	-14.526	0.854	-0.671	70.02	-21.28	-77.34	-38.175	-18.875	-10.217	0.69302	0.36746	-0.47308	-0.40094	24.5	13113	100	53.06395176372751	1	1.047
2025-05-20 11:27:13.573	WT901BLE68(66B8CDDB35E6)	0.359	0.884	0.327	-14.526	0.854	-0.671	69.95	-21.27	-77.35	-38.175	-18.875	-10.217	0.69302	0.36746	-0.47308	-0.40094	24.5	13113	100	53.06395176372751	1	1.047
2025-05-20 11:27:13.573	WT901BLE68(66B8CDDB35E6)	0.359	0.884	0.327	-14.526	0.854	-0.671	69.88	-21.26	-77.37	-38.175	-18.875	-10.217	0.69302	0.36746	-0.47308	-0.40094	24.5	13113	100	53.06395176372751	1	1.047
2025-05-20 11:27:13.573	WT901BLE68(66B8CDDB35E6)	0.36	0.884	0.327	-14.526	0.854	-0.671	69.81	-21.26	-77.38	-38.175	-18.875	-10.217	0.69302	0.36746	-0.47308	-0.40094	24.5	13113	100	53.06395176372751	1	1.047
2025-05-20 11:27:13.573	WT901BLE68(66B8CDDB35E6)	0.36	0.886	0.324	-14.587	-0.61	-0.916	69.74	-21.26	-77.4	-38.175	-18.875	-10.217	0.69302	0.36746	-0.47308	-0.40094	24.5	13113	100	53.06395176372751	1	1.047
2025-05-20 11:27:13.573	WT901BLE68(66B8CDDB35E6)	0.36	0.886	0.324	-14.587	-0.61	-0.916	69.68	-21.25	-77.42	-38.175	-18.875	-10.217	0.69302	0.36746	-0.47308	-0.40094	24.5	13113	100	53.06395176372751	1	1.047
2025-05-20 11:27:13.606	WT901BLE68(66B8CDDB35E6)	0.36	0.886	0.324	-14.587	-0.61	-0.916	69.61	-21.25	-77.44	-38.175	-18.875	-10.217	0.69302	0.36746	-0.47308	-0.40094	24.5	13113	100	53.06395176372751	1	1.08
2025-05-20 11:27:13.606	WT901BLE68(66B8CDDB35E6)	0.357	0.886	0.324	-14.587	-0.61	-0.916	69.54	-21.25	-77.46	-38.175	-18.875	-10.217	0.69302	0.36746	-0.47308	-0.40094	24.5	13113	100	53.06395176372751	1	1.08
2025-05-20 11:27:13.606	WT901BLE68(66B8CDDB35E6)	0.357	0.891	0.333	-13.733	0.122	-1.16	69.48	-21.24	-77.48	-38.175	-18.875	-10.217	0.69302	0.36746	-0.47308	-0.40094	24.5	13113	100	53.06395176372751	1	1.08
2025-05-20 11:27:13.606	WT901BLE68(66B8CDDB35E6)	0.357	0.891	0.333	-13.733	0.122	-1.16	69.42	-21.23	-77.49	-38.175	-18.875	-10.217	0.69302	0.36746	-0.47308	-0.40094	24.5	13113	100	53.06395176372751	1	1.08
2025-05-20 11:27:13.606	WT901BLE68(66B8CDDB35E6)	0.357	0.891	0.333	-13.733	0.122	-1.16	69.35	-21.23	-77.51	-38.175	-18.875	-10.217	0.69302	0.36746	-0.47308	-0.40094	24.5	13113	100	53.06395176372751	1	1.08
2025-05-20 11:27:13.606	WT901BLE68(66B8CDDB35E6)	0.353	0.891	0.333	-13.733	0.122	-1.16	69.29	-21.22	-77.53	-38.175	-18.875	-10.217	0.69302	0.36746	-0.47308	-0.40094	24.5	13113	100	53.06395176372751	1	1.08
2025-05-20 11:27:13.606	WT901BLE68(66B8CDDB35E6)	0.353	0.901	0.318	-15.442	1.404	-1.648	69.21	-21.21	-77.54	-38.175	-18.875	-10.217	0.69302	0.36746	-0.47308	-0.40094	24.5	13113	100	53.06395176372751	1	1.08
2025-05-20 11:27:13.606	WT901BLE68(66B8CDDB35E6)	0.353	0.901	0.318	-15.442	1.404	-1.648	69.14	-21.2	-77.55	-38.175	-18.875	-10.217	0.69302	0.36746	-0.47308	-0.40094	24.5	13113	100	53.06395176372751	1	1.08
2025-05-20 11:27:13.665	WT901BLE68(66B8CDDB35E6)	0.353	0.901	0.318	-15.442	1.404	-1.648	69.07	-21.19	-77.56	-38.175	-18.875	-10.217	0.69302	0.36746	-0.47308	-0.40094	24.5	13113	100	51.42105880176233	1	1.139
2025-05-20 11:27:13.665	WT901BLE68(66B8CDDB35E6)	0.353	0.901	0.318	-15.442	1.404	-1.648	68.99	-21.18	-77.57	-38.175	-18.875	-10.217	0.69302	0.36746	-0.47308	-0.40094	24.5	13113	100	51.42105880176233	1	1.139
2025-05-20 11:27:13.665	WT901BLE68(66B8CDDB35E6)	0.353	0.906	0.342	-16.907	2.136	-2.014	68.91	-21.17	-77.58	-38.175	-18.875	-10.217	0.69302	0.36746	-0.47308	-0.40094	24.5	13113	100	51.42105880176233	1	1.139
2025-05-20 11:27:13.665	WT901BLE68(66B8CDDB35E6)	0.353	0.906	0.342	-16.907	2.136	-2.014	68.83	-21.15	-77.59	-38.175	-18.875	-10.217	0.69302	0.36746	-0.47308	-0.40094	24.5	13113	100	51.42105880176233	1	1.139
2025-05-20 11:27:13.665	WT901BLE68(66B8CDDB35E6)	0.353	0.906	0.342	-16.907	2.136	-2.014	68.75	-21.13	-77.6	-38.175	-18.875	-10.217	0.69302	0.36746	-0.47308	-0.40094	24.5	13113	100	51.42105880176233	1	1.139
2025-05-20 11:27:13.665	WT901BLE68(66B8CDDB35E6)	0.346	0.906	0.342	-16.907	2.136	-2.014	68.66	-21.12	-77.6	-38.175	-18.875	-10.217	0.69302	0.36746	-0.47308	-0.40094	24.5	13113	100	51.42105880176233	1	1.139
2025-05-20 11:27:13.665	WT901BLE68(66B8CDDB35E6)	0.346	0.909	0.352	-18.677	3.601	-2.563	68.57	-21.1	-77.61	-38.175	-18.875	-10.217	0.69302	0.36746	-0.47308	-0.40094	24.5	13113	100	51.42105880176233	1	1.139
2025-05-20 11:27:13.665	WT901BLE68(66B8CDDB35E6)	0.346	0.909	0.352	-18.677	3.601	-2.563	68.48	-21.08	-77.61	-38.175	-18.875	-10.217	0.69302	0.36746	-0.47308	-0.40094	24.5	13113	100	51.42105880176233	1	1.139
2025-05-20 11:27:13.694	WT901BLE68(66B8CDDB35E6)	0.346	0.909	0.352	-18.677	3.601	-2.563	68.38	-21.06	-77.61	-38.175	-18.875	-10.217	0.69803	0.33582	-0.46405	-0.42953	24.5	13113	100	52.69196789063224	1	1.168
2025-05-20 11:27:13.694	WT901BLE68(66B8CDDB35E6)	0.344	0.909	0.352	-18.677	3.601	-2.563	68.3	-21.04	-77.61	-38.175	-18.875	-10.217	0.69803	0.33582	-0.46405	-0.42953	24.5	13113	100	52.69196789063224	1	1.168
2025-05-20 11:27:13.694	WT901BLE68(66B8CDDB35E6)	0.344	0.898	0.358	-18.738	5.371	-2.686	68.2	-21.02	-77.6	-38.175	-18.875	-10.217	0.69803	0.33582	-0.46405	-0.42953	24.5	13113	100	52.69196789063224	1	1.168
2025-05-20 11:27:13.694	WT901BLE68(66B8CDDB35E6)	0.344	0.898	0.358	-18.738	5.371	-2.686	68.1	-20.99	-77.59	-38.175	-18.875	-10.217	0.69803	0.33582	-0.46405	-0.42953	24.5	13113	100	52.69196789063224	1	1.168
2025-05-20 11:27:13.694	WT901BLE68(66B8CDDB35E6)	0.344	0.898	0.358	-18.738	5.371	-2.686	68.01	-20.97	-77.58	-38.175	-18.875	-10.217	0.69803	0.33582	-0.46405	-0.42953	24.5	13113	100	52.69196789063224	1	1.168
2025-05-20 11:27:13.694	WT901BLE68(66B8CDDB35E6)	0.351	0.898	0.358	-18.738	5.371	-2.686	67.91	-20.95	-77.57	-38.175	-18.875	-10.217	0.69803	0.33582	-0.46405	-0.42953	24.5	13113	100	52.69196789063224	1	1.168
2025-05-20 11:27:13.694	WT901BLE68(66B8CDDB35E6)	0.351	0.885	0.367	-18.616	6.348	-2.686	67.81	-20.92	-77.56	-38.175	-18.875	-10.217	0.69803	0.33582	-0.46405	-0.42953	24.5	13113	100	52.69196789063224	1	1.168
2025-05-20 11:27:13.694	WT901BLE68(66B8CDDB35E6)	0.351	0.885	0.367	-18.616	6.348	-2.686	67.72	-20.89	-77.54	-38.175	-18.875	-10.217	0.69803	0.33582	-0.46405	-0.42953	24.5	13113	100	52.69196789063224	1	1.168
2025-05-20 11:27:13.724	WT901BLE68(66B8CDDB35E6)	0.351	0.885	0.367	-18.616	6.348	-2.686	67.62	-20.86	-77.53	-38.175	-18.875	-10.217	0.69803	0.33582	-0.46405	-0.42953	24.5	13113	100	52.69196789063224	1	1.198
2025-05-20 11:27:13.724	WT901BLE68(66B8CDDB35E6)	0.354	0.885	0.367	-18.616	6.348	-2.686	67.52	-20.84	-77.51	-38.175	-18.875	-10.217	0.69803	0.33582	-0.46405	-0.42953	24.5	13113	100	52.69196789063224	1	1.198
2025-05-20 11:27:13.724	WT901BLE68(66B8CDDB35E6)	0.354	0.877	0.371	-17.883	7.751	-2.258	67.43	-20.81	-77.49	-38.175	-18.875	-10.217	0.69803	0.33582	-0.46405	-0.42953	24.5	13113	100	52.69196789063224	1	1.198
2025-05-20 11:27:13.724	WT901BLE68(66B8CDDB35E6)	0.354	0.877	0.371	-17.883	7.751	-2.258	67.33	-20.79	-77.47	-38.175	-18.875	-10.217	0.69803	0.33582	-0.46405	-0.42953	24.5	13113	100	52.69196789063224	1	1.198
2025-05-20 11:27:13.724	WT901BLE68(66B8CDDB35E6)	0.354	0.877	0.371	-17.883	7.751	-2.258	67.24	-20.76	-77.45	-38.175	-18.875	-10.217	0.69803	0.33582	-0.46405	-0.42953	24.5	13113	100	52.69196789063224	1	1.198
2025-05-20 11:27:13.724	WT901BLE68(66B8CDDB35E6)	0.359	0.877	0.371	-17.883	7.751	-2.258	67.14	-20.73	-77.43	-38.175	-18.875	-10.217	0.69803	0.33582	-0.46405	-0.42953	24.5	13113	100	52.69196789063224	1	1.198
2025-05-20 11:27:13.724	WT901BLE68(66B8CDDB35E6)	0.359	0.874	0.38	-18.677	9.399	-2.014	67.04	-20.7	-77.4	-38.175	-18.875	-10.217	0.69803	0.33582	-0.46405	-0.42953	24.5	13113	100	52.69196789063224	1	1.198
2025-05-20 11:27:13.724	WT901BLE68(66B8CDDB35E6)	0.359	0.874	0.38	-18.677	9.399	-2.014	66.93	-20.68	-77.37	-38.175	-18.875	-10.217	0.69803	0.33582	-0.46405	-0.42953	24.5	13113	100	52.69196789063224	1	1.198
2025-05-20 11:27:13.784	WT901BLE68(66B8CDDB35E6)	0.359	0.874	0.38	-18.677	9.399	-2.014	66.83	-20.65	-77.34	-38.175	-18.875	-10.217	0.69803	0.33582	-0.46405	-0.42953	24.5	13113	100	52.69196789063224	1	1.258
2025-05-20 11:27:13.784	WT901BLE68(66B8CDDB35E6)	0.359	0.874	0.38	-18.677	9.399	-2.014	66.73	-20.62	-77.31	-38.175	-18.875	-10.217	0.69803	0.33582	-0.46405	-0.42953	24.5	13113	100	52.69196789063224	1	1.258
2025-05-20 11:27:13.784	WT901BLE68(66B8CDDB35E6)	0.359	0.875	0.398	-19.653	12.695	-2.563	66.62	-20.58	-77.26	-38.175	-18.875	-10.217	0.69803	0.33582	-0.46405	-0.42953	24.5	13113	100	52.69196789063224	1	1.258
2025-05-20 11:27:13.785	WT901BLE68(66B8CDDB35E6)	0.359	0.875	0.398	-19.653	12.695	-2.563	66.5	-20.54	-77.22	-38.175	-18.875	-10.217	0.69803	0.33582	-0.46405	-0.42953	24.5	13113	100	52.69196789063224	1	1.259
2025-05-20 11:27:13.785	WT901BLE68(66B8CDDB35E6)	0.359	0.875	0.398	-19.653	12.695	-2.563	66.39	-20.51	-77.17	-38.175	-18.875	-10.217	0.69803	0.33582	-0.46405	-0.42953	24.5	13113	100	52.69196789063224	1	1.259
2025-05-20 11:27:13.785	WT901BLE68(66B8CDDB35E6)	0.354	0.875	0.398	-19.653	12.695	-2.563	66.28	-20.47	-77.12	-38.175	-18.875	-10.217	0.69803	0.33582	-0.46405	-0.42953	24.5	13113	100	52.69196789063224	1	1.259
2025-05-20 11:27:13.785	WT901BLE68(66B8CDDB35E6)	0.354	0.865	0.408	-21.057	15.747	-2.686	66.15	-20.42	-77.06	-38.175	-18.875	-10.217	0.69803	0.33582	-0.46405	-0.42953	24.5	13113	100	52.69196789063224	1	1.259
2025-05-20 11:27:13.785	WT901BLE68(66B8CDDB35E6)	0.354	0.865	0.408	-21.057	15.747	-2.686	66.02	-20.38	-77.01	-38.175	-18.875	-10.217	0.69803	0.33582	-0.46405	-0.42953	24.5	13113	100	52.69196789063224	1	1.259
2025-05-20 11:27:13.814	WT901BLE68(66B8CDDB35E6)	0.354	0.865	0.408	-21.057	15.747	-2.686	65.9	-20.34	-76.95	-38.175	-18.875	-10.217	0.69803	0.33582	-0.46405	-0.42953	24.5	13113	100	52.69196789063224	1	1.288
2025-05-20 11:27:13.814	WT901BLE68(66B8CDDB35E6)	0.355	0.865	0.408	-21.057	15.747	-2.686	65.78	-20.29	-76.89	-38.175	-18.875	-10.217	0.69803	0.33582	-0.46405	-0.42953	24.5	13113	100	52.69196789063224	1	1.288
2025-05-20 11:27:13.814	WT901BLE68(66B8CDDB35E6)	0.355	0.864	0.414	-22.278	18.555	-2.441	65.64	-20.24	-76.82	-38.175	-18.875	-10.217	0.69803	0.33582	-0.46405	-0.42953	24.5	13113	100	52.69196789063224	1	1.288
2025-05-20 11:27:13.814	WT901BLE68(66B8CDDB35E6)	0.355	0.864	0.414	-22.278	18.555	-2.441	65.5	-20.19	-76.75	-38.175	-18.875	-10.217	0.69803	0.33582	-0.46405	-0.42953	24.5	13113	100	52.69196789063224	1	1.288
2025-05-20 11:27:13.814	WT901BLE68(66B8CDDB35E6)	0.355	0.864	0.414	-22.278	18.555	-2.441	65.37	-20.15	-76.68	-38.175	-18.875	-10.217	0.69803	0.33582	-0.46405	-0.42953	24.5	13113	100	52.69196789063224	1	1.288
2025-05-20 11:27:13.814	WT901BLE68(66B8CDDB35E6)	0.349	0.864	0.414	-22.278	18.555	-2.441	65.23	-20.1	-76.62	-38.175	-18.875	-10.217	0.69803	0.33582	-0.46405	-0.42953	24.5	13113	100	52.69196789063224	1	1.288
2025-05-20 11:27:13.814	WT901BLE68(66B8CDDB35E6)	0.349	0.867	0.411	-24.597	20.996	-0.977	65.08	-20.05	-76.54	-38.175	-18.875	-10.217	0.69803	0.33582	-0.46405	-0.42953	24.5	13113	100	52.69196789063224	1	1.288
2025-05-20 11:27:13.814	WT901BLE68(66B8CDDB35E6)	0.349	0.867	0.411	-24.597	20.996	-0.977	64.93	-20.0	-76.45	-38.175	-18.875	-10.217	0.69803	0.33582	-0.46405	-0.42953	24.5	13113	100	52.69196789063224	1	1.288
2025-05-20 11:27:13.845	WT901BLE68(66B8CDDB35E6)	0.349	0.867	0.411	-24.597	20.996	-0.977	64.78	-19.96	-76.37	-38.175	-18.875	-10.217	0.69803	0.33582	-0.46405	-0.42953	24.5	13113	100	52.69196789063224	1	1.319
2025-05-20 11:27:13.845	WT901BLE68(66B8CDDB35E6)	0.346	0.867	0.411	-24.597	20.996	-0.977	64.62	-19.91	-76.28	-38.175	-18.875	-10.217	0.69803	0.33582	-0.46405	-0.42953	24.5	13113	100	52.69196789063224	1	1.319
2025-05-20 11:27:13.845	WT901BLE68(66B8CDDB35E6)	0.346	0.867	0.408	-25.818	23.682	-0.061	64.46	-19.86	-76.18	-38.175	-18.875	-10.217	0.69803	0.33582	-0.46405	-0.42953	24.5	13113	100	52.69196789063224	1	1.319
2025-05-20 11:27:13.845	WT901BLE68(66B8CDDB35E6)	0.346	0.867	0.408	-25.818	23.682	-0.061	64.3	-19.81	-76.09	-38.175	-18.875	-10.217	0.69803	0.33582	-0.46405	-0.42953	24.5	13113	100	52.69196789063224	1	1.319
2025-05-20 11:27:13.845	WT901BLE68(66B8CDDB35E6)	0.346	0.867	0.408	-25.818	23.682	-0.061	64.14	-19.76	-75.99	-38.175	-18.875	-10.217	0.69803	0.33582	-0.46405	-0.42953	24.5	13113	100	52.69196789063224	1	1.319
2025-05-20 11:27:13.845	WT901BLE68(66B8CDDB35E6)	0.337	0.867	0.408	-25.818	23.682	-0.061	63.98	-19.71	-75.89	-38.175	-18.875	-10.217	0.69803	0.33582	-0.46405	-0.42953	24.5	13113	100	52.69196789063224	1	1.319
2025-05-20 11:27:13.845	WT901BLE68(66B8CDDB35E6)	0.337	0.849	0.406	-24.597	22.278	0.488	63.83	-19.66	-75.79	-38.175	-18.875	-10.217	0.69803	0.33582	-0.46405	-0.42953	24.5	13113	100	52.69196789063224	1	1.319
2025-05-20 11:27:13.845	WT901BLE68(66B8CDDB35E6)	0.337	0.849	0.406	-24.597	22.278	0.488	63.67	-19.62	-75.7	-38.175	-18.875	-10.217	0.69803	0.33582	-0.46405	-0.42953	24.5	13113	100	52.69196789063224	1	1.319
2025-05-20 11:27:13.907	WT901BLE68(66B8CDDB35E6)	0.337	0.849	0.406	-24.597	22.278	0.488	63.52	-19.57	-75.61	-38.175	-18.875	-10.217	0.69803	0.33582	-0.46405	-0.42953	24.5	13113	100	52.69196789063224	1	1.381
2025-05-20 11:27:13.907	WT901BLE68(66B8CDDB35E6)	0.344	0.849	0.406	-24.597	22.278	0.488	63.37	-19.53	-75.52	-38.175	-18.875	-10.217	0.69803	0.33582	-0.46405	-0.42953	24.5	13113	100	52.69196789063224	1	1.381
2025-05-20 11:27:13.907	WT901BLE68(66B8CDDB35E6)	0.344	0.852	0.417	-21.851	19.043	0.061	63.24	-19.48	-75.44	-37.133	-15.883	-12.375	0.69803	0.33582	-0.46405	-0.42953	24.5	13113	100	52.69196789063224	1	1.381
2025-05-20 11:27:13.908	WT901BLE68(66B8CDDB35E6)	0.344	0.852	0.417	-21.851	19.043	0.061	63.11	-19.45	-75.37	-37.133	-15.883	-12.375	0.69803	0.33582	-0.46405	-0.42953	24.5	13113	100	52.69196789063224	1	1.382
2025-05-20 11:27:13.908	WT901BLE68(66B8CDDB35E6)	0.344	0.852	0.417	-21.851	19.043	0.061	62.97	-19.41	-75.29	-37.133	-15.883	-12.375	0.69803	0.33582	-0.46405	-0.42953	24.5	13113	100	52.69196789063224	1	1.382
2025-05-20 11:27:13.908	WT901BLE68(66B8CDDB35E6)	0.341	0.852	0.417	-21.851	19.043	0.061	62.84	-19.36	-75.22	-37.133	-15.883	-12.375	0.69803	0.33582	-0.46405	-0.42953	24.5	13113	100	52.69196789063224	1	1.382
2025-05-20 11:27:13.908	WT901BLE68(66B8CDDB35E6)	0.341	0.858	0.433	-19.47	18.372	-0.427	62.72	-19.32	-75.15	-37.133	-15.883	-12.375	0.69803	0.33582	-0.46405	-0.42953	24.5	13113	100	52.69196789063224	1	1.382
2025-05-20 11:27:13.908	WT901BLE68(66B8CDDB35E6)	0.341	0.858	0.433	-19.47	18.372	-0.427	62.61	-19.28	-75.08	-37.133	-15.883	-12.375	0.69803	0.33582	-0.46405	-0.42953	24.5	13113	100	52.69196789063224	1	1.382
2025-05-20 11:27:13.936	WT901BLE68(66B8CDDB35E6)	0.331	0.858	0.433	-19.47	18.372	-0.427	62.49	-19.24	-75.0	-37.133	-15.883	-12.375	0.69803	0.33582	-0.46405	-0.42953	24.5	13113	100	52.69196789063224	1	1.41
2025-05-20 11:27:13.936	WT901BLE68(66B8CDDB35E6)	0.331	0.846	0.444	-18.677	17.09	-0.916	62.37	-19.2	-74.94	-37.133	-15.883	-12.375	0.69803	0.33582	-0.46405	-0.42953	24.5	13113	100	52.69196789063224	1	1.41
2025-05-20 11:27:13.936	WT901BLE68(66B8CDDB35E6)	0.331	0.846	0.444	-18.677	17.09	-0.916	62.27	-19.16	-74.87	-37.133	-15.883	-12.375	0.69803	0.33582	-0.46405	-0.42953	24.5	13113	100	52.69196789063224	1	1.41
2025-05-20 11:27:13.936	WT901BLE68(66B8CDDB35E6)	0.331	0.846	0.444	-18.677	17.09	-0.916	62.16	-19.12	-74.81	-37.133	-15.883	-12.375	0.69803	0.33582	-0.46405	-0.42953	24.5	13113	100	52.69196789063224	1	1.41
2025-05-20 11:27:13.936	WT901BLE68(66B8CDDB35E6)	0.332	0.846	0.444	-18.677	17.09	-0.916	62.05	-19.08	-74.74	-37.133	-15.883	-12.375	0.69803	0.33582	-0.46405	-0.42953	24.5	13113	100	52.69196789063224	1	1.41
2025-05-20 11:27:13.936	WT901BLE68(66B8CDDB35E6)	0.332	0.846	0.463	-19.348	17.761	-1.16	61.93	-19.03	-74.67	-37.133	-15.883	-12.375	0.69803	0.33582	-0.46405	-0.42953	24.5	13113	100	52.69196789063224	1	1.41
2025-05-20 11:27:13.936	WT901BLE68(66B8CDDB35E6)	0.332	0.846	0.463	-19.348	17.761	-1.16	61.81	-18.98	-74.6	-37.133	-15.883	-12.375	0.69803	0.33582	-0.46405	-0.42953	24.5	13113	100	52.69196789063224	1	1.41
2025-05-20 11:27:13.936	WT901BLE68(66B8CDDB35E6)	0.332	0.846	0.463	-19.348	17.761	-1.16	61.69	-18.94	-74.53	-37.133	-15.883	-12.375	0.69803	0.33582	-0.46405	-0.42953	24.5	13113	100	52.69196789063224	1	1.41
2025-05-20 11:27:13.967	WT901BLE68(66B8CDDB35E6)	0.32	0.846	0.463	-19.348	17.761	-1.16	61.58	-18.9	-74.46	-37.133	-15.883	-12.375	0.69803	0.33582	-0.46405	-0.42953	24.5	13113	100	52.69196789063224	1	1.441
2025-05-20 11:27:13.967	WT901BLE68(66B8CDDB35E6)	0.32	0.839	0.468	-21.118	20.02	-0.793	61.45	-18.85	-74.38	-37.133	-15.883	-12.375	0.69803	0.33582	-0.46405	-0.42953	24.5	13113	100	52.69196789063224	1	1.441
2025-05-20 11:27:13.967	WT901BLE68(66B8CDDB35E6)	0.32	0.839	0.468	-21.118	20.02	-0.793	61.33	-18.8	-74.3	-37.133	-15.883	-12.375	0.69803	0.33582	-0.46405	-0.42953	24.5	13113	100	52.69196789063224	1	1.441
2025-05-20 11:27:13.967	WT901BLE68(66B8CDDB35E6)	0.32	0.839	0.468	-21.118	20.02	-0.793	61.2	-18.75	-74.22	-37.133	-15.883	-12.375	0.69803	0.33582	-0.46405	-0.42953	24.5	13113	100	52.69196789063224	1	1.441
2025-05-20 11:27:13.967	WT901BLE68(66B8CDDB35E6)	0.319	0.839	0.468	-21.118	20.02	-0.793	61.07	-18.7	-74.14	-37.133	-15.883	-12.375	0.69803	0.33582	-0.46405	-0.42953	24.5	13113	100	52.69196789063224	1	1.441
2025-05-20 11:27:13.967	WT901BLE68(66B8CDDB35E6)	0.319	0.842	0.469	-24.292	22.217	-0.793	60.92	-18.65	-74.05	-37.133	-15.883	-12.375	0.69803	0.33582	-0.46405	-0.42953	24.5	13113	100	52.69196789063224	1	1.441
2025-05-20 11:27:13.967	WT901BLE68(66B8CDDB35E6)	0.319	0.842	0.469	-24.292	22.217	-0.793	60.78	-18.59	-73.96	-37.133	-15.883	-12.375	0.69803	0.33582	-0.46405	-0.42953	24.5	13113	100	52.69196789063224	1	1.441
2025-05-20 11:27:13.967	WT901BLE68(66B8CDDB35E6)	0.319	0.842	0.469	-24.292	22.217	-0.793	60.63	-18.53	-73.87	-37.133	-15.883	-12.375	0.69803	0.33582	-0.46405	-0.42953	24.5	13113	100	52.69196789063224	1	1.441
2025-05-20 11:27:14.260	WT901BLE68(66B8CDDB35E6)	0.321	0.842	0.469	-24.292	22.217	-0.793	60.49	-18.48	-73.78	-37.133	-15.883	-12.375	0.69803	0.33582	-0.46405	-0.42953	24.5	13113	100	52.69196789063224	1	1.734
2025-05-20 11:27:14.260	WT901BLE68(66B8CDDB35E6)	0.321	0.838	0.47	-28.259	25.574	-1.343	60.31	-18.41	-73.68	-37.133	-15.883	-12.375	0.69803	0.33582	-0.46405	-0.42953	24.5	13113	100	52.69196789063224	1	1.734
2025-05-20 11:27:14.260	WT901BLE68(66B8CDDB35E6)	0.321	0.838	0.47	-28.259	25.574	-1.343	60.14	-18.35	-73.58	-37.133	-15.883	-12.375	0.69803	0.33582	-0.46405	-0.42953	24.5	13113	100	52.69196789063224	1	1.734
2025-05-20 11:27:14.260	WT901BLE68(66B8CDDB35E6)	0.321	0.838	0.47	-28.259	25.574	-1.343	59.97	-18.28	-73.48	-37.133	-15.883	-12.375	0.69803	0.33582	-0.46405	-0.42953	24.5	13113	100	52.69196789063224	1	1.734
2025-05-20 11:27:14.260	WT901BLE68(66B8CDDB35E6)	0.321	0.838	0.47	-28.259	25.574	-1.343	59.81	-18.22	-73.38	-37.133	-15.883	-12.375	0.69803	0.33582	-0.46405	-0.42953	24.5	13113	100	52.69196789063224	1	1.734
2025-05-20 11:27:14.260	WT901BLE68(66B8CDDB35E6)	0.321	0.817	0.473	-26.611	24.231	-1.404	59.65	-18.15	-73.29	-37.133	-15.883	-12.375	0.69803	0.33582	-0.46405	-0.42953	24.5	13113	100	55.79947921089124	1	1.734
2025-05-20 11:27:14.260	WT901BLE68(66B8CDDB35E6)	0.321	0.817	0.473	-26.611	24.231	-1.404	59.49	-18.08	-73.2	-37.133	-15.883	-12.375	0.69803	0.33582	-0.46405	-0.42953	24.5	13113	100	55.79947921089124	1	1.734
2025-05-20 11:27:14.260	WT901BLE68(66B8CDDB35E6)	0.321	0.817	0.473	-26.611	24.231	-1.404	59.33	-18.02	-73.1	-37.133	-15.883	-12.375	0.69803	0.33582	-0.46405	-0.42953	24.5	13113	100	55.79947921089124	1	1.734
2025-05-20 11:27:14.550	WT901BLE68(66B8CDDB35E6)	0.322	0.817	0.473	-26.611	24.231	-1.404	59.18	-17.96	-73.01	-37.133	-15.883	-12.375	0.69803	0.33582	-0.46405	-0.42953	24.5	13113	100	55.79947921089124	1	2.024
2025-05-20 11:27:14.550	WT901BLE68(66B8CDDB35E6)	0.322	0.827	0.494	-23.254	20.752	-1.648	59.04	-17.9	-72.93	-37.133	-15.883	-12.375	0.69803	0.33582	-0.46405	-0.42953	24.5	13113	100	55.79947921089124	1	2.024
2025-05-20 11:27:14.550	WT901BLE68(66B8CDDB35E6)	0.322	0.827	0.494	-23.254	20.752	-1.648	58.9	-17.84	-72.86	-37.133	-15.883	-12.375	0.69803	0.33582	-0.46405	-0.42953	24.5	13113	100	55.79947921089124	1	2.024
2025-05-20 11:27:14.550	WT901BLE68(66B8CDDB35E6)	0.322	0.827	0.494	-23.254	20.752	-1.648	58.77	-17.79	-72.78	-37.133	-15.883	-12.375	0.69803	0.33582	-0.46405	-0.42953	24.5	13113	100	55.79947921089124	1	2.024
2025-05-20 11:27:14.550	WT901BLE68(66B8CDDB35E6)	0.319	0.827	0.494	-23.254	20.752	-1.648	58.63	-17.73	-72.71	-37.133	-15.883	-12.375	0.69803	0.33582	-0.46405	-0.42953	24.5	13113	100	55.79947921089124	1	2.024
2025-05-20 11:27:14.550	WT901BLE68(66B8CDDB35E6)	0.319	0.832	0.513	-24.902	20.996	-2.625	58.49	-17.67	-72.64	-37.133	-15.883	-12.375	0.69803	0.33582	-0.46405	-0.42953	24.5	13113	100	55.79947921089124	1	2.024
2025-05-20 11:27:14.550	WT901BLE68(66B8CDDB35E6)	0.319	0.832	0.513	-24.902	20.996	-2.625	58.35	-17.61	-72.57	-37.133	-15.883	-12.375	0.73962	0.3092	-0.39282	-0.45047	24.5	13113	100	48.1429596161513	1	2.024
2025-05-20 11:27:14.550	WT901BLE68(66B8CDDB35E6)	0.319	0.832	0.513	-24.902	20.996	-2.625	58.21	-17.55	-72.5	-37.133	-15.883	-12.375	0.73962	0.3092	-0.39282	-0.45047	24.5	13113	100	48.1429596161513	1	2.024
2025-05-20 11:27:14.840	WT901BLE68(66B8CDDB35E6)	0.305	0.832	0.513	-24.902	20.996	-2.625	58.07	-17.48	-72.42	-37.133	-15.883	-12.375	0.73962	0.3092	-0.39282	-0.45047	24.5	13113	100	48.1429596161513	1	2.314
2025-05-20 11:27:14.840	WT901BLE68(66B8CDDB35E6)	0.305	0.816	0.525	-27.1	20.447	-2.808	57.91	-17.42	-72.36	-37.133	-15.883	-12.375	0.73962	0.3092	-0.39282	-0.45047	24.5	13113	100	48.1429596161513	1	2.314
2025-05-20 11:27:14.840	WT901BLE68(66B8CDDB35E6)	0.305	0.816	0.525	-27.1	20.447	-2.808	57.76	-17.36	-72.28	-37.133	-15.883	-12.375	0.73962	0.3092	-0.39282	-0.45047	24.5	13113	100	48.1429596161513	1	2.314
2025-05-20 11:27:14.840	WT901BLE68(66B8CDDB35E6)	0.305	0.816	0.525	-27.1	20.447	-2.808	57.61	-17.3	-72.21	-37.133	-15.883	-12.375	0.73962	0.3092	-0.39282	-0.45047	24.5	13113	100	48.1429596161513	1	2.314
2025-05-20 11:27:14.840	WT901BLE68(66B8CDDB35E6)	0.289	0.816	0.525	-27.1	20.447	-2.808	57.46	-17.23	-72.15	-37.133	-15.883	-12.375	0.73962	0.3092	-0.39282	-0.45047	24.5	13113	100	48.1429596161513	1	2.314
2025-05-20 11:27:14.840	WT901BLE68(66B8CDDB35E6)	0.289	0.794	0.521	-26.428	18.311	-3.052	57.32	-17.18	-72.09	-37.133	-15.883	-12.375	0.73962	0.3092	-0.39282	-0.45047	24.5	13113	100	48.1429596161513	1	2.314
2025-05-20 11:27:14.840	WT901BLE68(66B8CDDB35E6)	0.289	0.794	0.521	-26.428	18.311	-3.052	57.17	-17.12	-72.03	-37.133	-15.883	-12.375	0.73962	0.3092	-0.39282	-0.45047	24.5	13113	100	48.1429596161513	1	2.314
2025-05-20 11:27:14.840	WT901BLE68(66B8CDDB35E6)	0.289	0.794	0.521	-26.428	18.311	-3.052	57.02	-17.06	-71.97	-37.133	-15.883	-12.375	0.73962	0.3092	-0.39282	-0.45047	24.5	13113	100	48.1429596161513	1	2.314
2025-05-20 11:27:14.145	WT901BLE68(66B8CDDB35E6)	0.293	0.794	0.521	-26.428	18.311	-3.052	56.88	-17.0	-71.91	-37.133	-15.883	-12.375	0.73962	0.3092	-0.39282	-0.45047	24.5	13113	100	48.1429596161513	1	1.619
2025-05-20 11:27:14.145	WT901BLE68(66B8CDDB35E6)	0.293	0.811	0.529	-28.87	18.616	-1.16	56.72	-16.95	-71.85	-37.133	-15.883	-12.375	0.73962	0.3092	-0.39282	-0.45047	24.5	13113	100	48.1429596161513	1	1.619
2025-05-20 11:27:14.145	WT901BLE68(66B8CDDB35E6)	0.293	0.811	0.529	-28.87	18.616	-1.16	56.56	-16.9	-71.79	-37.133	-15.883	-12.375	0.73962	0.3092	-0.39282	-0.45047	24.5	13113	100	48.1429596161513	1	1.619
2025-05-20 11:27:14.146	WT901BLE68(66B8CDDB35E6)	0.293	0.811	0.529	-28.87	18.616	-1.16	56.4	-16.84	-71.72	-37.133	-15.883	-12.375	0.73962	0.3092	-0.39282	-0.45047	24.5	13113	100	48.1429596161513	1	1.62
2025-05-20 11:27:14.146	WT901BLE68(66B8CDDB35E6)	0.292	0.811	0.529	-28.87	18.616	-1.16	56.24	-16.79	-71.66	-37.133	-15.883	-12.375	0.73962	0.3092	-0.39282	-0.45047	24.5	13113	100	48.1429596161513	1	1.62
2025-05-20 11:27:14.146	WT901BLE68(66B8CDDB35E6)	0.292	0.827	0.529	-32.654	20.447	-1.831	56.06	-16.73	-71.59	-37.133	-15.883	-12.375	0.73962	0.3092	-0.39282	-0.45047	24.5	13113	100	48.1429596161513	1	1.62
2025-05-20 11:27:14.146	WT901BLE68(66B8CDDB35E6)	0.292	0.827	0.529	-32.654	20.447	-1.831	55.89	-16.67	-71.53	-37.133	-15.883	-12.375	0.73962	0.3092	-0.39282	-0.45047	24.5	13113	100	48.1429596161513	1	1.62
2025-05-20 11:27:14.146	WT901BLE68(66B8CDDB35E6)	0.292	0.827	0.529	-32.654	20.447	-1.831	55.71	-16.61	-71.46	-37.133	-15.883	-12.375	0.73962	0.3092	-0.39282	-0.45047	24.5	13113	100	48.1429596161513	1	1.62
2025-05-20 11:27:14.175	WT901BLE68(66B8CDDB35E6)	0.286	0.827	0.529	-32.654	20.447	-1.831	55.53	-16.55	-71.38	-37.133	-15.883	-12.375	0.73962	0.3092	-0.39282	-0.45047	24.5	13113	100	48.1429596161513	1	1.649
2025-05-20 11:27:14.175	WT901BLE68(66B8CDDB35E6)	0.286	0.836	0.534	-31.311	19.104	-5.127	55.37	-16.47	-71.33	-37.133	-15.883	-12.375	0.73962	0.3092	-0.39282	-0.45047	24.5	13113	100	48.1429596161513	1	1.649
2025-05-20 11:27:14.175	WT901BLE68(66B8CDDB35E6)	0.286	0.836	0.534	-31.311	19.104	-5.127	55.2	-16.4	-71.27	-37.133	-15.883	-12.375	0.73962	0.3092	-0.39282	-0.45047	24.5	13113	100	48.1429596161513	1	1.649
2025-05-20 11:27:14.175	WT901BLE68(66B8CDDB35E6)	0.286	0.836	0.534	-31.311	19.104	-5.127	55.04	-16.33	-71.22	-37.133	-15.883	-12.375	0.73962	0.3092	-0.39282	-0.45047	24.5	13113	100	48.1429596161513	1	1.649
2025-05-20 11:27:14.175	WT901BLE68(66B8CDDB35E6)	0.268	0.836	0.534	-31.311	19.104	-5.127	54.87	-16.26	-71.16	-37.133	-15.883	-12.375	0.73962	0.3092	-0.39282	-0.45047	24.5	13113	100	48.1429596161513	1	1.649
2025-05-20 11:27:14.175	WT901BLE68(66B8CDDB35E6)	0.268	0.792	0.555	-29.236	16.541	-6.775	54.72	-16.19	-71.12	-37.133	-15.883	-12.375	0.73962	0.3092	-0.39282	-0.45047	24.5	13113	100	48.1429596161513	1	1.649
2025-05-20 11:27:14.175	WT901BLE68(66B8CDDB35E6)	0.268	0.792	0.555	-29.236	16.541	-6.775	54.57	-16.12	-71.08	-37.133	-15.883	-12.375	0.73962	0.3092	-0.39282	-0.45047	24.5	13113	100	48.1429596161513	1	1.649
2025-05-20 11:27:14.175	WT901BLE68(66B8CDDB35E6)	0.268	0.792	0.555	-29.236	16.541	-6.775	54.42	-16.05	-71.04	-37.133	-15.883	-12.375	0.73962	0.3092	-0.39282	-0.45047	24.5	13113	100	48.1429596161513	1	1.649
2025-05-20 11:27:14.205	WT901BLE68(66B8CDDB35E6)	0.271	0.792	0.555	-29.236	16.541	-6.775	54.27	-15.97	-70.99	-37.133	-15.883	-12.375	0.73962	0.3092	-0.39282	-0.45047	24.5	13113	100	48.1429596161513	1	1.679
2025-05-20 11:27:14.205	WT901BLE68(66B8CDDB35E6)	0.271	0.785	0.558	-27.1	14.099	-3.662	54.14	-15.92	-70.96	-37.133	-15.883	-12.375	0.73962	0.3092	-0.39282	-0.45047	24.5	13113	100	48.1429596161513	1	1.679
2025-05-20 11:27:14.205	WT901BLE68(66B8CDDB35E6)	0.271	0.785	0.558	-27.1	14.099	-3.662	54.0	-15.87	-70.91	-37.133	-15.883	-12.375	0.73962	0.3092	-0.39282	-0.45047	24.5	13113	100	48.1429596161513	1	1.679
2025-05-20 11:27:14.205	WT901BLE68(66B8CDDB35E6)	0.271	0.785	0.558	-27.1	14.099	-3.662	53.86	-15.81	-70.87	-37.133	-15.883	-12.375	0.73962	0.3092	-0.39282	-0.45047	24.5	13113	100	48.1429596161513	1	1.679
2025-05-20 11:27:14.205	WT901BLE68(66B8CDDB35E6)	0.279	0.785	0.558	-27.1	14.099	-3.662	53.72	-15.76	-70.83	-37.133	-15.883	-12.375	0.73962	0.3092	-0.39282	-0.45047	24.5	13113	100	48.1429596161513	1	1.679
2025-05-20 11:27:14.205	WT901BLE68(66B8CDDB35E6)	0.279	0.789	0.574	-26.55	13.123	-2.38	53.59	-15.72	-70.78	-37.133	-15.883	-12.375	0.73962	0.3092	-0.39282	-0.45047	24.5	13113	100	48.1429596161513	1	1.679
2025-05-20 11:27:14.205	WT901BLE68(66B8CDDB35E6)	0.279	0.789	0.574	-26.55	13.123	-2.38	53.45	-15.67	-70.75	-37.133	-15.883	-12.375	0.73962	0.3092	-0.39282	-0.45047	24.5	13113	100	48.1429596161513	1	1.679
2025-05-20 11:27:14.205	WT901BLE68(66B8CDDB35E6)	0.279	0.789	0.574	-26.55	13.123	-2.38	53.32	-15.63	-70.71	-37.133	-15.883	-12.375	0.73962	0.3092	-0.39282	-0.45047	24.5	13113	100	48.1429596161513	1	1.679
2025-05-20 11:27:14.265	WT901BLE68(66B8CDDB35E6)	0.273	0.789	0.574	-26.55	13.123	-2.38	53.18	-15.58	-70.66	-37.133	-15.883	-12.375	0.73962	0.3092	-0.39282	-0.45047	24.5	13113	100	48.1429596161513	1	1.739
2025-05-20 11:27:14.265	WT901BLE68(66B8CDDB35E6)	0.273	0.776	0.59	-26.184	13.245	-2.197	53.05	-15.53	-70.63	-37.133	-15.883	-12.375	0.73962	0.3092	-0.39282	-0.45047	24.5	13113	100	48.1429596161513	1	1.739
2025-05-20 11:27:14.265	WT901BLE68(66B8CDDB35E6)	0.273	0.776	0.59	-26.184	13.245	-2.197	52.91	-15.49	-70.59	-37.133	-15.883	-12.375	0.73962	0.3092	-0.39282	-0.45047	24.5	13113	100	48.1429596161513	1	1.739
2025-05-20 11:27:14.265	WT901BLE68(66B8CDDB35E6)	0.273	0.776	0.59	-26.184	13.245	-2.197	52.78	-15.45	-70.54	-37.133	-15.883	-12.375	0.73962	0.3092	-0.39282	-0.45047	24.5	13113	100	48.1429596161513	1	1.739
2025-05-20 11:27:14.265	WT901BLE68(66B8CDDB35E6)	0.255	0.776	0.59	-26.184	13.245	-2.197	52.65	-15.4	-70.5	-37.133	-15.883	-12.375	0.73962	0.3092	-0.39282	-0.45047	24.5	13113	100	48.1429596161513	1	1.739
2025-05-20 11:27:14.265	WT901BLE68(66B8CDDB35E6)	0.255	0.773	0.592	-24.292	12.451	-2.625	52.52	-15.35	-70.47	-37.133	-15.883	-12.375	0.73962	0.3092	-0.39282	-0.45047	24.5	13113	100	48.1429596161513	1	1.739
2025-05-20 11:27:14.265	WT901BLE68(66B8CDDB35E6)	0.255	0.773	0.592	-24.292	12.451	-2.625	52.4	-15.31	-70.43	-37.133	-15.883	-12.375	0.73962	0.3092	-0.39282	-0.45047	24.5	13113	100	48.1429596161513	1	1.739
2025-05-20 11:27:14.265	WT901BLE68(66B8CDDB35E6)	0.255	0.773	0.592	-24.292	12.451	-2.625	52.27	-15.27	-70.39	-37.133	-15.883	-12.375	0.73962	0.3092	-0.39282	-0.45047	24.5	13113	100	48.1429596161513	1	1.739
2025-05-20 11:27:14.295	WT901BLE68(66B8CDDB35E6)	0.248	0.773	0.592	-24.292	12.451	-2.625	52.15	-15.22	-70.36	-32.642	-10.675	-17.575	0.73962	0.3092	-0.39282	-0.45047	24.5	13113	100	48.1429596161513	1	1.769
2025-05-20 11:27:14.295	WT901BLE68(66B8CDDB35E6)	0.248	0.779	0.593	-23.438	12.024	-3.052	52.03	-15.17	-70.32	-32.642	-10.675	-17.575	0.73962	0.3092	-0.39282	-0.45047	24.5	13113	100	48.1429596161513	1	1.769
2025-05-20 11:27:14.295	WT901BLE68(66B8CDDB35E6)	0.248	0.779	0.593	-23.438	12.024	-3.052	51.92	-15.13	-70.29	-32.642	-10.675	-17.575	0.73962	0.3092	-0.39282	-0.45047	24.5	13113	100	48.1429596161513	1	1.769
2025-05-20 11:27:14.295	WT901BLE68(66B8CDDB35E6)	0.248	0.779	0.593	-23.438	12.024	-3.052	51.8	-15.08	-70.26	-32.642	-10.675	-17.575	0.73962	0.3092	-0.39282	-0.45047	24.5	13113	100	48.1429596161513	1	1.769
2025-05-20 11:27:14.295	WT901BLE68(66B8CDDB35E6)	0.248	0.779	0.593	-23.438	12.024	-3.052	51.68	-15.03	-70.22	-32.642	-10.675	-17.575	0.73962	0.3092	-0.39282	-0.45047	24.5	13113	100	48.1429596161513	1	1.769
2025-05-20 11:27:14.295	WT901BLE68(66B8CDDB35E6)	0.248	0.766	0.596	-21.118	11.78	-3.113	51.57	-14.99	-70.2	-32.642	-10.675	-17.575	0.73962	0.3092	-0.39282	-0.45047	24.5	13113	100	48.1429596161513	1	1.769
2025-05-20 11:27:14.295	WT901BLE68(66B8CDDB35E6)	0.248	0.766	0.596	-21.118	11.78	-3.113	51.47	-14.94	-70.16	-32.642	-10.675	-17.575	0.73962	0.3092	-0.39282	-0.45047	24.5	13113	100	48.1429596161513	1	1.769
2025-05-20 11:27:14.295	WT901BLE68(66B8CDDB35E6)	0.248	0.766	0.596	-21.118	11.78	-3.113	51.36	-14.89	-70.13	-32.642	-10.675	-17.575	0.73962	0.3092	-0.39282	-0.45047	24.5	13113	100	48.1429596161513	1	1.769
2025-05-20 11:27:14.326	WT901BLE68(66B8CDDB35E6)	0.255	0.766	0.596	-21.118	11.78	-3.113	51.25	-14.85	-70.1	-32.642	-10.675	-17.575	0.73962	0.3092	-0.39282	-0.45047	24.5	13113	100	48.1429596161513	1	1.8
2025-05-20 11:27:14.326	WT901BLE68(66B8CDDB35E6)	0.255	0.774	0.586	-18.372	12.268	-2.686	51.16	-14.8	-70.07	-32.642	-10.675	-17.575	0.73962	0.3092	-0.39282	-0.45047	24.5	13113	100	48.1429596161513	1	1.8
2025-05-20 11:27:14.326	WT901BLE68(66B8CDDB35E6)	0.255	0.774	0.586	-18.372	12.268	-2.686	51.07	-14.75	-70.03	-32.642	-10.675	-17.575	0.73962	0.3092	-0.39282	-0.45047	24.5	13113	100	48.1429596161513	1	1.8
2025-05-20 11:27:14.326	WT901BLE68(66B8CDDB35E6)	0.255	0.774	0.586	-18.372	12.268	-2.686	50.98	-14.71	-70.0	-32.642	-10.675	-17.575	0.73962	0.3092	-0.39282	-0.45047	24.5	13113	100	48.1429596161513	1	1.8
2025-05-20 11:27:14.326	WT901BLE68(66B8CDDB35E6)	0.255	0.774	0.586	-18.372	12.268	-2.686	50.88	-14.66	-69.96	-32.642	-10.675	-17.575	0.73962	0.3092	-0.39282	-0.45047	24.5	13113	100	48.1429596161513	1	1.8
2025-05-20 11:27:14.326	WT901BLE68(66B8CDDB35E6)	0.255	0.779	0.607	-16.235	10.986	-1.77	50.8	-14.62	-69.93	-32.642	-10.675	-17.575	0.73962	0.3092	-0.39282	-0.45047	24.5	13113	100	48.1429596161513	1	1.8
2025-05-20 11:27:14.327	WT901BLE68(66B8CDDB35E6)	0.255	0.779	0.607	-16.235	10.986	-1.77	50.72	-14.58	-69.9	-32.642	-10.675	-17.575	0.73962	0.3092	-0.39282	-0.45047	24.5	13113	100	48.1429596161513	1	1.801
2025-05-20 11:27:14.327	WT901BLE68(66B8CDDB35E6)	0.255	0.779	0.607	-16.235	10.986	-1.77	50.64	-14.54	-69.86	-32.642	-10.675	-17.575	0.73962	0.3092	-0.39282	-0.45047	24.5	13113	100	48.1429596161513	1	1.801
2025-05-20 11:27:14.385	WT901BLE68(66B8CDDB35E6)	0.25	0.779	0.607	-16.235	10.986	-1.77	50.55	-14.5	-69.82	-32.642	-10.675	-17.575	0.73962	0.3092	-0.39282	-0.45047	24.5	13113	100	48.1429596161513	1	1.859
2025-05-20 11:27:14.385	WT901BLE68(66B8CDDB35E6)	0.25	0.778	0.614	-16.052	10.437	-1.953	50.48	-14.46	-69.79	-32.642	-10.675	-17.575	0.73962	0.3092	-0.39282	-0.45047	24.5	13113	100	48.1429596161513	1	1.859
2025-05-20 11:27:14.385	WT901BLE68(66B8CDDB35E6)	0.25	0.778	0.614	-16.052	10.437	-1.953	50.39	-14.43	-69.76	-32.642	-10.675	-17.575	0.73962	0.3092	-0.39282	-0.45047	24.5	13113	100	48.1429596161513	1	1.859
2025-05-20 11:27:14.385	WT901BLE68(66B8CDDB35E6)	0.25	0.778	0.614	-16.052	10.437	-1.953	50.32	-14.39	-69.73	-32.642	-10.675	-17.575	0.73962	0.3092	-0.39282	-0.45047	24.5	13113	100	48.1429596161513	1	1.859
2025-05-20 11:27:14.385	WT901BLE68(66B8CDDB35E6)	0.238	0.778	0.614	-16.052	10.437	-1.953	50.23	-14.35	-69.7	-32.642	-10.675	-17.575	0.73962	0.3092	-0.39282	-0.45047	24.5	13113	100	48.1429596161513	1	1.859
2025-05-20 11:27:14.385	WT901BLE68(66B8CDDB35E6)	0.238	0.763	0.619	-12.085	10.803	-2.014	50.17	-14.31	-69.66	-32.642	-10.675	-17.575	0.73962	0.3092	-0.39282	-0.45047	24.5	13113	100	48.1429596161513	1	1.859
2025-05-20 11:27:14.385	WT901BLE68(66B8CDDB35E6)	0.238	0.763	0.619	-12.085	10.803	-2.014	50.11	-14.27	-69.64	-32.642	-10.675	-17.575	0.73962	0.3092	-0.39282	-0.45047	24.5	13113	100	48.1429596161513	1	1.859
2025-05-20 11:27:14.385	WT901BLE68(66B8CDDB35E6)	0.238	0.763	0.619	-12.085	10.803	-2.014	50.05	-14.23	-69.6	-32.642	-10.675	-17.575	0.73962	0.3092	-0.39282	-0.45047	24.5	13113	100	48.1429596161513	1	1.859
2025-05-20 11:27:14.415	WT901BLE68(66B8CDDB35E6)	0.216	0.763	0.619	-12.085	10.803	-2.014	49.99	-14.18	-69.57	-32.642	-10.675	-17.575	0.73962	0.3092	-0.39282	-0.45047	24.5	13113	100	48.1429596161513	1	1.889
2025-05-20 11:27:14.415	WT901BLE68(66B8CDDB35E6)	0.216	0.766	0.602	-7.935	9.216	-2.502	49.95	-14.15	-69.55	-32.642	-10.675	-17.575	0.73962	0.3092	-0.39282	-0.45047	24.5	13113	100	48.1429596161513	1	1.889
2025-05-20 11:27:14.415	WT901BLE68(66B8CDDB35E6)	0.216	0.766	0.602	-7.935	9.216	-2.502	49.92	-14.11	-69.53	-32.642	-10.675	-17.575	0.73962	0.3092	-0.39282	-0.45047	24.5	13113	100	48.1429596161513	1	1.889
2025-05-20 11:27:14.415	WT901BLE68(66B8CDDB35E6)	0.216	0.766	0.602	-7.935	9.216	-2.502	49.88	-14.07	-69.51	-32.642	-10.675	-17.575	0.73962	0.3092	-0.39282	-0.45047	24.5	13113	100	48.1429596161513	1	1.889
2025-05-20 11:27:14.415	WT901BLE68(66B8CDDB35E6)	0.222	0.766	0.602	-7.935	9.216	-2.502	49.84	-14.04	-69.49	-32.642	-10.675	-17.575	0.73962	0.3092	-0.39282	-0.45047	24.5	13113	100	48.1429596161513	1	1.889
2025-05-20 11:27:14.415	WT901BLE68(66B8CDDB35E6)	0.222	0.763	0.606	-7.08	6.104	-2.258	49.81	-14.01	-69.48	-32.642	-10.675	-17.575	0.73962	0.3092	-0.39282	-0.45047	24.5	13113	100	48.1429596161513	1	1.889
2025-05-20 11:27:14.416	WT901BLE68(66B8CDDB35E6)	0.222	0.763	0.606	-7.08	6.104	-2.258	49.78	-13.98	-69.47	-32.642	-10.675	-17.575	0.73962	0.3092	-0.39282	-0.45047	24.5	13113	100	48.1429596161513	1	1.89
2025-05-20 11:27:14.416	WT901BLE68(66B8CDDB35E6)	0.222	0.763	0.606	-7.08	6.104	-2.258	49.75	-13.95	-69.46	-32.642	-10.675	-17.575	0.73962	0.3092	-0.39282	-0.45047	24.5	13113	100	48.1429596161513	1	1.89
2025-05-20 11:27:14.445	WT901BLE68(66B8CDDB35E6)	0.233	0.763	0.606	-7.08	6.104	-2.258	49.72	-13.93	-69.45	-32.642	-10.675	-17.575	0.73962	0.3092	-0.39282	-0.45047	24.5	13113	100	52.535443154357814	1	1.919
2025-05-20 11:27:14.445	WT901BLE68(66B8CDDB35E6)	0.233	0.771	0.619	-8.423	4.028	-1.953	49.68	-13.9	-69.44	-32.642	-10.675	-17.575	0.73962	0.3092	-0.39282	-0.45047	24.5	13113	100	52.535443154357814	1	1.919
2025-05-20 11:27:14.445	WT901BLE68(66B8CDDB35E6)	0.233	0.771	0.619	-8.423	4.028	-1.953	49.65	-13.89	-69.44	-32.642	-10.675	-17.575	0.73962	0.3092	-0.39282	-0.45047	24.5	13113	100	52.535443154357814	1	1.919
2025-05-20 11:27:14.445	WT901BLE68(66B8CDDB35E6)	0.233	0.771	0.619	-8.423	4.028	-1.953	49.61	-13.86	-69.44	-32.642	-10.675	-17.575	0.73962	0.3092	-0.39282	-0.45047	24.5	13113	100	52.535443154357814	1	1.919
2025-05-20 11:27:14.445	WT901BLE68(66B8CDDB35E6)	0.238	0.771	0.619	-8.423	4.028	-1.953	49.58	-13.84	-69.44	-32.642	-10.675	-17.575	0.73962	0.3092	-0.39282	-0.45047	24.5	13113	100	52.535443154357814	1	1.919
2025-05-20 11:27:14.445	WT901BLE68(66B8CDDB35E6)	0.238	0.771	0.618	-8.972	2.563	-1.648	49.54	-13.83	-69.44	-32.642	-10.675	-17.575	0.73962	0.3092	-0.39282	-0.45047	24.5	13113	100	52.535443154357814	1	1.919
2025-05-20 11:27:14.445	WT901BLE68(66B8CDDB35E6)	0.238	0.771	0.618	-8.972	2.563	-1.648	49.5	-13.82	-69.45	-32.642	-10.675	-17.575	0.73962	0.3092	-0.39282	-0.45047	24.5	13113	100	52.535443154357814	1	1.919
2025-05-20 11:27:14.445	WT901BLE68(66B8CDDB35E6)	0.238	0.771	0.618	-8.972	2.563	-1.648	49.46	-13.8	-69.46	-32.642	-10.675	-17.575	0.73962	0.3092	-0.39282	-0.45047	24.5	13113	100	52.535443154357814	1	1.919
2025-05-20 11:27:14.507	WT901BLE68(66B8CDDB35E6)	0.238	0.771	0.618	-8.972	2.563	-1.648	49.42	-13.79	-69.46	-32.642	-10.675	-17.575	0.73962	0.3092	-0.39282	-0.45047	24.5	13113	100	52.535443154357814	1	1.981
2025-05-20 11:27:14.507	WT901BLE68(66B8CDDB35E6)	0.238	0.769	0.619	-7.996	0.793	-1.587	49.39	-13.78	-69.46	-32.642	-10.675	-17.575	0.76978	0.27875	-0.32587	-0.47266	24.5	13113	100	45.24342825958576	1	1.981
2025-05-20 11:27:14.507	WT901BLE68(66B8CDDB35E6)	0.238	0.769	0.619	-7.996	0.793	-1.587	49.36	-13.77	-69.47	-32.642	-10.675	-17.575	0.76978	0.27875	-0.32587	-0.47266	24.5	13113	100	45.24342825958576	1	1.981
2025-05-20 11:27:14.508	WT901BLE68(66B8CDDB35E6)	0.238	0.769	0.619	-7.996	0.793	-1.587	49.33	-13.76	-69.47	-32.642	-10.675	-17.575	0.76978	0.27875	-0.32587	-0.47266	24.5	13113	100	45.24342825958576	1	1.982
2025-05-20 11:27:14.508	WT901BLE68(66B8CDDB35E6)	0.235	0.769	0.619	-7.996	0.793	-1.587	49.3	-13.75	-69.48	-32.642	-10.675	-17.575	0.76978	0.27875	-0.32587	-0.47266	24.5	13113	100	45.24342825958576	1	1.982
2025-05-20 11:27:14.508	WT901BLE68(66B8CDDB35E6)	0.235	0.766	0.615	-8.179	1.099	-1.648	49.26	-13.74	-69.48	-32.642	-10.675	-17.575	0.76978	0.27875	-0.32587	-0.47266	24.5	13113	100	45.24342825958576	1	1.982
2025-05-20 11:27:14.508	WT901BLE68(66B8CDDB35E6)	0.235	0.766	0.615	-8.179	1.099	-1.648	49.23	-13.73	-69.49	-32.642	-10.675	-17.575	0.76978	0.27875	-0.32587	-0.47266	24.5	13113	100	45.24342825958576	1	1.982
2025-05-20 11:27:14.508	WT901BLE68(66B8CDDB35E6)	0.235	0.766	0.615	-8.179	1.099	-1.648	49.2	-13.72	-69.49	-32.642	-10.675	-17.575	0.76978	0.27875	-0.32587	-0.47266	24.5	13113	100	45.24342825958576	1	1.982
2025-05-20 11:27:14.537	WT901BLE68(66B8CDDB35E6)	0.237	0.766	0.615	-8.179	1.099	-1.648	49.16	-13.72	-69.5	-32.642	-10.675	-17.575	0.76978	0.27875	-0.32587	-0.47266	24.5	13113	100	45.24342825958576	1	2.011
2025-05-20 11:27:14.537	WT901BLE68(66B8CDDB35E6)	0.237	0.761	0.626	-7.263	2.258	-1.221	49.13	-13.71	-69.5	-32.642	-10.675	-17.575	0.76978	0.27875	-0.32587	-0.47266	24.5	13113	100	45.24342825958576	1	2.011
2025-05-20 11:27:14.537	WT901BLE68(66B8CDDB35E6)	0.237	0.761	0.626	-7.263	2.258	-1.221	49.1	-13.69	-69.51	-32.642	-10.675	-17.575	0.76978	0.27875	-0.32587	-0.47266	24.5	13113	100	45.24342825958576	1	2.011
2025-05-20 11:27:14.537	WT901BLE68(66B8CDDB35E6)	0.239	0.761	0.626	-7.263	2.258	-1.221	49.08	-13.68	-69.51	-32.642	-10.675	-17.575	0.76978	0.27875	-0.32587	-0.47266	24.5	13113	100	45.24342825958576	1	2.011
2025-05-20 11:27:14.537	WT901BLE68(66B8CDDB35E6)	0.239	0.768	0.633	-6.714	1.282	-1.465	49.05	-13.67	-69.52	-32.642	-10.675	-17.575	0.76978	0.27875	-0.32587	-0.47266	24.5	13113	100	45.24342825958576	1	2.011
2025-05-20 11:27:14.538	WT901BLE68(66B8CDDB35E6)	0.239	0.768	0.633	-6.714	1.282	-1.465	49.02	-13.66	-69.52	-32.642	-10.675	-17.575	0.76978	0.27875	-0.32587	-0.47266	24.5	13113	100	45.24342825958576	1	2.012
2025-05-20 11:27:14.538	WT901BLE68(66B8CDDB35E6)	0.239	0.768	0.633	-6.714	1.282	-1.465	48.99	-13.65	-69.53	-32.642	-10.675	-17.575	0.76978	0.27875	-0.32587	-0.47266	24.5	13113	100	45.24342825958576	1	2.012
2025-05-20 11:27:14.538	WT901BLE68(66B8CDDB35E6)	0.247	0.768	0.633	-6.714	1.282	-1.465	48.97	-13.64	-69.54	-32.642	-10.675	-17.575	0.76978	0.27875	-0.32587	-0.47266	24.5	13113	100	45.24342825958576	1	2.012
2025-05-20 11:27:14.626	WT901BLE68(66B8CDDB35E6)	0.247	0.761	0.619	-6.653	1.526	-1.892	48.94	-13.63	-69.54	-32.642	-10.675	-17.575	0.76978	0.27875	-0.32587	-0.47266	24.5	13113	100	45.24342825958576	1	2.1
2025-05-20 11:27:14.626	WT901BLE68(66B8CDDB35E6)	0.247	0.761	0.619	-6.653	1.526	-1.892	48.92	-13.62	-69.55	-32.642	-10.675	-17.575	0.76978	0.27875	-0.32587	-0.47266	24.5	13113	100	45.24342825958576	1	2.1
2025-05-20 11:27:14.626	WT901BLE68(66B8CDDB35E6)	0.247	0.761	0.619	-6.653	1.526	-1.892	48.89	-13.61	-69.55	-32.642	-10.675	-17.575	0.76978	0.27875	-0.32587	-0.47266	24.5	13113	100	45.24342825958576	1	2.1
2025-05-20 11:27:14.626	WT901BLE68(66B8CDDB35E6)	0.245	0.761	0.619	-6.653	1.526	-1.892	48.87	-13.6	-69.57	-32.642	-10.675	-17.575	0.76978	0.27875	-0.32587	-0.47266	24.5	13113	100	45.24342825958576	1	2.1
2025-05-20 11:27:14.626	WT901BLE68(66B8CDDB35E6)	0.245	0.762	0.629	-7.202	1.282	-1.587	48.83	-13.58	-69.57	-32.642	-10.675	-17.575	0.76978	0.27875	-0.32587	-0.47266	24.5	13113	100	45.24342825958576	1	2.1
2025-05-20 11:27:14.626	WT901BLE68(66B8CDDB35E6)	0.245	0.762	0.629	-7.202	1.282	-1.587	48.81	-13.57	-69.58	-32.642	-10.675	-17.575	0.76978	0.27875	-0.32587	-0.47266	24.5	13113	100	45.24342825958576	1	2.1
2025-05-20 11:27:14.626	WT901BLE68(66B8CDDB35E6)	0.245	0.762	0.629	-7.202	1.282	-1.587	48.78	-13.57	-69.59	-32.642	-10.675	-17.575	0.76978	0.27875	-0.32587	-0.47266	24.5	13113	100	45.24342825958576	1	2.1
2025-05-20 11:27:14.626	WT901BLE68(66B8CDDB35E6)	0.241	0.762	0.629	-7.202	1.282	-1.587	48.75	-13.56	-69.6	-32.642	-10.675	-17.575	0.76978	0.27875	-0.32587	-0.47266	24.5	13113	100	45.24342825958576	1	2.1
2025-05-20 11:27:14.627	WT901BLE68(66B8CDDB35E6)	0.241	0.772	0.637	-7.69	2.014	-1.404	48.72	-13.55	-69.6	-32.642	-10.675	-17.575	0.76978	0.27875	-0.32587	-0.47266	24.5	13113	100	45.24342825958576	1	2.101
2025-05-20 11:27:14.627	WT901BLE68(66B8CDDB35E6)	0.241	0.772	0.637	-7.69	2.014	-1.404	48.69	-13.54	-69.6	-32.642	-10.675	-17.575	0.76978	0.27875	-0.32587	-0.47266	24.5	13113	100	45.24342825958576	1	2.101
2025-05-20 11:27:14.627	WT901BLE68(66B8CDDB35E6)	0.241	0.772	0.637	-7.69	2.014	-1.404	48.65	-13.52	-69.61	-32.642	-10.675	-17.575	0.76978	0.27875	-0.32587	-0.47266	24.5	13113	100	45.24342825958576	1	2.101
2025-05-20 11:27:14.627	WT901BLE68(66B8CDDB35E6)	0.236	0.772	0.637	-7.69	2.014	-1.404	48.63	-13.51	-69.61	-32.642	-10.675	-17.575	0.76978	0.27875	-0.32587	-0.47266	24.5	13113	100	45.24342825958576	1	2.101
2025-05-20 11:27:14.627	WT901BLE68(66B8CDDB35E6)	0.236	0.77	0.641	-8.484	1.709	-1.526	48.59	-13.5	-69.61	-32.642	-10.675	-17.575	0.76978	0.27875	-0.32587	-0.47266	24.5	13113	100	45.24342825958576	1	2.101
2025-05-20 11:27:14.627	WT901BLE68(66B8CDDB35E6)	0.236	0.77	0.641	-8.484	1.709	-1.526	48.55	-13.49	-69.62	-32.642	-10.675	-17.575	0.76978	0.27875	-0.32587	-0.47266	24.5	13113	100	45.24342825958576	1	2.101
2025-05-20 11:27:14.627	WT901BLE68(66B8CDDB35E6)	0.236	0.77	0.641	-8.484	1.709	-1.526	48.52	-13.48	-69.63	-32.642	-10.675	-17.575	0.76978	0.27875	-0.32587	-0.47266	24.5	13113	100	45.24342825958576	1	2.101
2025-05-20 11:27:14.627	WT901BLE68(66B8CDDB35E6)	0.237	0.77	0.641	-8.484	1.709	-1.526	48.48	-13.47	-69.63	-32.642	-10.675	-17.575	0.76978	0.27875	-0.32587	-0.47266	24.5	13113	100	45.24342825958576	1	2.101
2025-05-20 11:27:14.656	WT901BLE68(66B8CDDB35E6)	0.237	0.758	0.638	-5.31	0.427	-1.648	48.46	-13.46	-69.64	-32.642	-10.675	-17.575	0.76978	0.27875	-0.32587	-0.47266	24.5	13113	100	45.24342825958576	1	2.13
2025-05-20 11:27:14.656	WT901BLE68(66B8CDDB35E6)	0.237	0.758	0.638	-5.31	0.427	-1.648	48.44	-13.46	-69.65	-32.642	-10.675	-17.575	0.76978	0.27875	-0.32587	-0.47266	24.5	13113	100	45.24342825958576	1	2.13
2025-05-20 11:27:14.656	WT901BLE68(66B8CDDB35E6)	0.237	0.758	0.638	-5.31	0.427	-1.648	48.42	-13.45	-69.66	-32.642	-10.675	-17.575	0.76978	0.27875	-0.32587	-0.47266	24.5	13113	100	45.24342825958576	1	2.13
2025-05-20 11:27:14.656	WT901BLE68(66B8CDDB35E6)	0.241	0.758	0.638	-5.31	0.427	-1.648	48.41	-13.44	-69.67	-32.642	-10.675	-17.575	0.76978	0.27875	-0.32587	-0.47266	24.5	13113	100	45.24342825958576	1	2.13
2025-05-20 11:27:14.656	WT901BLE68(66B8CDDB35E6)	0.241	0.761	0.643	-4.028	-2.258	-0.732	48.39	-13.45	-69.69	-32.642	-10.675	-17.575	0.76978	0.27875	-0.32587	-0.47266	24.5	13113	100	45.24342825958576	1	2.13
2025-05-20 11:27:14.656	WT901BLE68(66B8CDDB35E6)	0.241	0.761	0.643	-4.028	-2.258	-0.732	48.38	-13.45	-69.7	-31.075	-8.208	-18.508	0.76978	0.27875	-0.32587	-0.47266	24.5	13113	100	45.24342825958576	1	2.13
2025-05-20 11:27:14.656	WT901BLE68(66B8CDDB35E6)	0.241	0.761	0.643	-4.028	-2.258	-0.732	48.37	-13.46	-69.71	-31.075	-8.208	-18.508	0.76978	0.27875	-0.32587	-0.47266	24.5	13113	100	45.24342825958576	1	2.13
2025-05-20 11:27:14.656	WT901BLE68(66B8CDDB35E6)	0.236	0.761	0.643	-4.028	-2.258	-0.732	48.36	-13.46	-69.73	-31.075	-8.208	-18.508	0.76978	0.27875	-0.32587	-0.47266	24.5	13113	100	45.24342825958576	1	2.13
2025-05-20 11:27:14.717	WT901BLE68(66B8CDDB35E6)	0.236	0.764	0.643	-6.042	-0.793	-0.61	48.34	-13.46	-69.74	-31.075	-8.208	-18.508	0.76978	0.27875	-0.32587	-0.47266	24.5	13113	100	45.24342825958576	1	2.191
2025-05-20 11:27:14.717	WT901BLE68(66B8CDDB35E6)	0.236	0.764	0.643	-6.042	-0.793	-0.61	48.32	-13.46	-69.75	-31.075	-8.208	-18.508	0.76978	0.27875	-0.32587	-0.47266	24.5	13113	100	45.24342825958576	1	2.191
2025-05-20 11:27:14.717	WT901BLE68(66B8CDDB35E6)	0.236	0.764	0.643	-6.042	-0.793	-0.61	48.3	-13.46	-69.76	-31.075	-8.208	-18.508	0.76978	0.27875	-0.32587	-0.47266	24.5	13113	100	45.24342825958576	1	2.191
2025-05-20 11:27:14.717	WT901BLE68(66B8CDDB35E6)	0.234	0.764	0.643	-6.042	-0.793	-0.61	48.27	-13.47	-69.77	-31.075	-8.208	-18.508	0.76978	0.27875	-0.32587	-0.47266	24.5	13113	100	45.24342825958576	1	2.191
2025-05-20 11:27:14.717	WT901BLE68(66B8CDDB35E6)	0.234	0.759	0.644	-7.019	0.854	-0.549	48.24	-13.46	-69.77	-31.075	-8.208	-18.508	0.76978	0.27875	-0.32587	-0.47266	24.5	13113	100	45.24342825958576	1	2.191
2025-05-20 11:27:14.717	WT901BLE68(66B8CDDB35E6)	0.234	0.759	0.644	-7.019	0.854	-0.549	48.21	-13.46	-69.77	-31.075	-8.208	-18.508	0.76978	0.27875	-0.32587	-0.47266	24.5	13113	100	45.24342825958576	1	2.191
2025-05-20 11:27:14.717	WT901BLE68(66B8CDDB35E6)	0.234	0.759	0.644	-7.019	0.854	-0.549	48.19	-13.45	-69.78	-31.075	-8.208	-18.508	0.76978	0.27875	-0.32587	-0.47266	24.5	13113	100	45.24342825958576	1	2.191
2025-05-20 11:27:14.717	WT901BLE68(66B8CDDB35E6)	0.228	0.759	0.644	-7.019	0.854	-0.549	48.16	-13.45	-69.78	-31.075	-8.208	-18.508	0.76978	0.27875	-0.32587	-0.47266	24.5	13113	100	45.24342825958576	1	2.191
2025-05-20 11:27:14.755	WT901BLE68(66B8CDDB35E6)	0.228	0.753	0.649	-7.263	0.854	-0.183	48.13	-13.45	-69.79	-31.075	-8.208	-18.508	0.76978	0.27875	-0.32587	-0.47266	24.5	13113	100	45.24342825958576	1	2.229
2025-05-20 11:27:14.755	WT901BLE68(66B8CDDB35E6)	0.228	0.753	0.649	-7.263	0.854	-0.183	48.09	-13.44	-69.79	-31.075	-8.208	-18.508	0.76978	0.27875	-0.32587	-0.47266	24.5	13113	100	45.24342825958576	1	2.229
2025-05-20 11:27:14.755	WT901BLE68(66B8CDDB35E6)	0.228	0.753	0.649	-7.263	0.854	-0.183	48.07	-13.44	-69.79	-31.075	-8.208	-18.508	0.76978	0.27875	-0.32587	-0.47266	24.5	13113	100	45.24342825958576	1	2.229
2025-05-20 11:27:14.755	WT901BLE68(66B8CDDB35E6)	0.23	0.753	0.649	-7.263	0.854	-0.183	48.03	-13.44	-69.79	-31.075	-8.208	-18.508	0.76978	0.27875	-0.32587	-0.47266	24.5	13113	100	45.24342825958576	1	2.229
2025-05-20 11:27:14.755	WT901BLE68(66B8CDDB35E6)	0.23	0.752	0.649	-4.883	0.0	-0.549	48.02	-13.43	-69.79	-31.075	-8.208	-18.508	0.76978	0.27875	-0.32587	-0.47266	24.5	13113	100	45.24342825958576	1	2.229
2025-05-20 11:27:14.755	WT901BLE68(66B8CDDB35E6)	0.23	0.752	0.649	-4.883	0.0	-0.549	48.0	-13.43	-69.8	-31.075	-8.208	-18.508	0.76978	0.27875	-0.32587	-0.47266	24.5	13113	100	45.24342825958576	1	2.229
2025-05-20 11:27:14.755	WT901BLE68(66B8CDDB35E6)	0.23	0.752	0.649	-4.883	0.0	-0.549	47.98	-13.43	-69.8	-31.075	-8.208	-18.508	0.76978	0.27875	-0.32587	-0.47266	24.5	13113	100	45.24342825958576	1	2.229
2025-05-20 11:27:14.755	WT901BLE68(66B8CDDB35E6)	0.236	0.752	0.649	-4.883	0.0	-0.549	47.96	-13.43	-69.81	-31.075	-8.208	-18.508	0.76978	0.27875	-0.32587	-0.47266	24.5	13113	100	45.24342825958576	1	2.229
2025-05-20 11:27:14.777	WT901BLE68(66B8CDDB35E6)	0.236	0.747	0.646	-2.808	-0.183	-1.16	47.96	-13.42	-69.81	-31.075	-8.208	-18.508	0.76978	0.27875	-0.32587	-0.47266	24.5	13113	100	45.24342825958576	1	2.251
2025-05-20 11:27:14.777	WT901BLE68(66B8CDDB35E6)	0.236	0.747	0.646	-2.808	-0.183	-1.16	47.94	-13.42	-69.82	-31.075	-8.208	-18.508	0.76978	0.27875	-0.32587	-0.47266	24.5	13113	100	45.24342825958576	1	2.251
2025-05-20 11:27:14.777	WT901BLE68(66B8CDDB35E6)	0.236	0.747	0.646	-2.808	-0.183	-1.16	47.94	-13.41	-69.83	-31.075	-8.208	-18.508	0.76978	0.27875	-0.32587	-0.47266	24.5	13113	100	45.24342825958576	1	2.251
2025-05-20 11:27:14.777	WT901BLE68(66B8CDDB35E6)	0.235	0.747	0.646	-2.808	-0.183	-1.16	47.93	-13.41	-69.83	-31.075	-8.208	-18.508	0.76978	0.27875	-0.32587	-0.47266	24.5	13113	100	45.24342825958576	1	2.251
2025-05-20 11:27:14.777	WT901BLE68(66B8CDDB35E6)	0.235	0.75	0.656	-2.808	-1.831	-0.671	47.93	-13.41	-69.84	-31.075	-8.208	-18.508	0.76978	0.27875	-0.32587	-0.47266	24.5	13113	100	45.24342825958576	1	2.251
2025-05-20 11:27:14.777	WT901BLE68(66B8CDDB35E6)	0.235	0.75	0.656	-2.808	-1.831	-0.671	47.92	-13.41	-69.85	-31.075	-8.208	-18.508	0.76978	0.27875	-0.32587	-0.47266	24.5	13113	100	45.24342825958576	1	2.251
2025-05-20 11:27:14.777	WT901BLE68(66B8CDDB35E6)	0.235	0.75	0.656	-2.808	-1.831	-0.671	47.91	-13.42	-69.86	-31.075	-8.208	-18.508	0.76978	0.27875	-0.32587	-0.47266	24.5	13113	100	45.24342825958576	1	2.251
2025-05-20 11:27:14.777	WT901BLE68(66B8CDDB35E6)	0.231	0.75	0.656	-2.808	-1.831	-0.671	47.91	-13.43	-69.87	-31.075	-8.208	-18.508	0.76978	0.27875	-0.32587	-0.47266	24.5	13113	100	45.24342825958576	1	2.251
2025-05-20 11:27:14.807	WT901BLE68(66B8CDDB35E6)	0.231	0.747	0.653	-3.845	-1.465	-0.793	47.89	-13.43	-69.88	-31.075	-8.208	-18.508	0.76978	0.27875	-0.32587	-0.47266	24.5	13113	100	45.24342825958576	1	2.281
2025-05-20 11:27:14.807	WT901BLE68(66B8CDDB35E6)	0.231	0.747	0.653	-3.845	-1.465	-0.793	47.88	-13.43	-69.9	-31.075	-8.208	-18.508	0.76978	0.27875	-0.32587	-0.47266	24.5	13113	100	45.24342825958576	1	2.281
2025-05-20 11:27:14.807	WT901BLE68(66B8CDDB35E6)	0.231	0.747	0.653	-3.845	-1.465	-0.793	47.87	-13.43	-69.91	-31.075	-8.208	-18.508	0.76978	0.27875	-0.32587	-0.47266	24.5	13113	100	45.24342825958576	1	2.281
2025-05-20 11:27:14.807	WT901BLE68(66B8CDDB35E6)	0.232	0.747	0.653	-3.845	-1.465	-0.793	47.86	-13.43	-69.92	-31.075	-8.208	-18.508	0.76978	0.27875	-0.32587	-0.47266	24.5	13113	100	45.24342825958576	1	2.281
2025-05-20 11:27:14.807	WT901BLE68(66B8CDDB35E6)	0.232	0.746	0.653	-2.563	-1.953	-0.977	47.85	-13.43	-69.93	-31.075	-8.208	-18.508	0.76978	0.27875	-0.32587	-0.47266	24.5	13113	100	45.24342825958576	1	2.281
2025-05-20 11:27:14.808	WT901BLE68(66B8CDDB35E6)	0.232	0.746	0.653	-2.563	-1.953	-0.977	47.85	-13.44	-69.94	-31.075	-8.208	-18.508	0.76978	0.27875	-0.32587	-0.47266	24.5	13113	100	45.24342825958576	1	2.282
2025-05-20 11:27:14.808	WT901BLE68(66B8CDDB35E6)	0.232	0.746	0.653	-2.563	-1.953	-0.977	47.84	-13.44	-69.96	-31.075	-8.208	-18.508	0.76978	0.27875	-0.32587	-0.47266	24.5	13113	100	45.10603311669654	1	2.282
2025-05-20 11:27:14.808	WT901BLE68(66B8CDDB35E6)	0.237	0.746	0.653	-2.563	-1.953	-0.977	47.83	-13.44	-69.98	-31.075	-8.208	-18.508	0.76978	0.27875	-0.32587	-0.47266	24.5	13113	100	45.10603311669654	1	2.282
2025-05-20 11:27:14.866	WT901BLE68(66B8CDDB35E6)	0.237	0.754	0.662	-2.686	-1.16	-0.793	47.82	-13.44	-69.99	-31.075	-8.208	-18.508	0.76978	0.27875	-0.32587	-0.47266	24.5	13113	100	45.10603311669654	1	2.34
2025-05-20 11:27:14.866	WT901BLE68(66B8CDDB35E6)	0.237	0.754	0.662	-2.686	-1.16	-0.793	47.82	-13.44	-70.0	-31.075	-8.208	-18.508	0.76978	0.27875	-0.32587	-0.47266	24.5	13113	100	45.10603311669654	1	2.34
2025-05-20 11:27:14.867	WT901BLE68(66B8CDDB35E6)	0.237	0.754	0.662	-2.686	-1.16	-0.793	47.81	-13.44	-70.01	-31.075	-8.208	-18.508	0.76978	0.27875	-0.32587	-0.47266	24.5	13113	100	45.10603311669654	1	2.341
2025-05-20 11:27:14.867	WT901BLE68(66B8CDDB35E6)	0.233	0.754	0.662	-2.686	-1.16	-0.793	47.8	-13.44	-70.02	-31.075	-8.208	-18.508	0.76978	0.27875	-0.32587	-0.47266	24.5	13113	100	45.10603311669654	1	2.341
2025-05-20 11:27:14.867	WT901BLE68(66B8CDDB35E6)	0.233	0.749	0.661	-4.089	0.0	-0.61	47.79	-13.44	-70.03	-31.075	-8.208	-18.508	0.76978	0.27875	-0.32587	-0.47266	24.5	13113	100	45.10603311669654	1	2.341
2025-05-20 11:27:14.867	WT901BLE68(66B8CDDB35E6)	0.233	0.749	0.661	-4.089	0.0	-0.61	47.77	-13.44	-70.03	-31.075	-8.208	-18.508	0.76978	0.27875	-0.32587	-0.47266	24.5	13113	100	45.10603311669654	1	2.341
2025-05-20 11:27:14.867	WT901BLE68(66B8CDDB35E6)	0.233	0.749	0.661	-4.089	0.0	-0.61	47.76	-13.44	-70.04	-31.075	-8.208	-18.508	0.76978	0.27875	-0.32587	-0.47266	24.5	13113	100	45.10603311669654	1	2.341
2025-05-20 11:27:14.867	WT901BLE68(66B8CDDB35E6)	0.23	0.749	0.661	-4.089	0.0	-0.61	47.74	-13.43	-70.04	-31.075	-8.208	-18.508	0.77084	0.26773	-0.31821	-0.48242	24.5	13113	100	44.308416647859026	1	2.341
2025-05-20 11:27:14.898	WT901BLE68(66B8CDDB35E6)	0.23	0.742	0.66	-3.296	-0.183	-0.244	47.73	-13.43	-70.05	-31.075	-8.208	-18.508	0.77084	0.26773	-0.31821	-0.48242	24.5	13113	100	44.308416647859026	1	2.372
2025-05-20 11:27:14.898	WT901BLE68(66B8CDDB35E6)	0.23	0.742	0.66	-3.296	-0.183	-0.244	47.71	-13.43	-70.05	-31.075	-8.208	-18.508	0.77084	0.26773	-0.31821	-0.48242	24.5	13113	100	44.308416647859026	1	2.372
2025-05-20 11:27:14.898	WT901BLE68(66B8CDDB35E6)	0.23	0.742	0.66	-3.296	-0.183	-0.244	47.7	-13.43	-70.06	-31.075	-8.208	-18.508	0.77084	0.26773	-0.31821	-0.48242	24.5	13113	100	44.308416647859026	1	2.372
2025-05-20 11:27:14.898	WT901BLE68(66B8CDDB35E6)	0.233	0.742	0.66	-3.296	-0.183	-0.244	47.69	-13.43	-70.07	-31.075	-8.208	-18.508	0.77084	0.26773	-0.31821	-0.48242	24.5	13113	100	44.308416647859026	1	2.372
2025-05-20 11:27:14.898	WT901BLE68(66B8CDDB35E6)	0.233	0.742	0.663	-2.136	-0.366	-0.244	47.69	-13.43	-70.07	-31.075	-8.208	-18.508	0.77084	0.26773	-0.31821	-0.48242	24.5	13113	100	44.308416647859026	1	2.372
2025-05-20 11:27:14.898	WT901BLE68(66B8CDDB35E6)	0.233	0.742	0.663	-2.136	-0.366	-0.244	47.68	-13.43	-70.08	-31.075	-8.208	-18.508	0.77084	0.26773	-0.31821	-0.48242	24.5	13113	100	44.308416647859026	1	2.372
2025-05-20 11:27:14.898	WT901BLE68(66B8CDDB35E6)	0.233	0.742	0.663	-2.136	-0.366	-0.244	47.67	-13.43	-70.09	-31.075	-8.208	-18.508	0.77084	0.26773	-0.31821	-0.48242	24.5	13113	100	44.308416647859026	1	2.372
2025-05-20 11:27:14.898	WT901BLE68(66B8CDDB35E6)	0.236	0.742	0.663	-2.136	-0.366	-0.244	47.66	-13.43	-70.1	-31.075	-8.208	-18.508	0.77084	0.26773	-0.31821	-0.48242	24.5	13113	100	44.308416647859026	1	2.372
2025-05-20 11:27:14.926	WT901BLE68(66B8CDDB35E6)	0.236	0.745	0.666	-3.235	0.916	-0.244	47.65	-13.42	-70.1	-31.075	-8.208	-18.508	0.77084	0.26773	-0.31821	-0.48242	24.5	13113	100	44.308416647859026	1	2.4
2025-05-20 11:27:14.926	WT901BLE68(66B8CDDB35E6)	0.236	0.745	0.666	-3.235	0.916	-0.244	47.64	-13.42	-70.1	-31.075	-8.208	-18.508	0.77084	0.26773	-0.31821	-0.48242	24.5	13113	100	44.308416647859026	1	2.4
2025-05-20 11:27:14.926	WT901BLE68(66B8CDDB35E6)	0.236	0.745	0.666	-3.235	0.916	-0.244	47.63	-13.41	-70.1	-31.075	-8.208	-18.508	0.77084	0.26773	-0.31821	-0.48242	24.5	13113	100	44.308416647859026	1	2.4
2025-05-20 11:27:14.926	WT901BLE68(66B8CDDB35E6)	0.234	0.745	0.666	-3.235	0.916	-0.244	47.61	-13.41	-70.1	-31.075	-8.208	-18.508	0.77084	0.26773	-0.31821	-0.48242	24.5	13113	100	44.308416647859026	1	2.4
2025-05-20 11:27:14.927	WT901BLE68(66B8CDDB35E6)	0.234	0.741	0.666	-4.517	2.136	-0.122	47.59	-13.4	-70.09	-31.075	-8.208	-18.508	0.77084	0.26773	-0.31821	-0.48242	24.5	13113	100	44.308416647859026	1	2.401
2025-05-20 11:27:14.927	WT901BLE68(66B8CDDB35E6)	0.234	0.741	0.666	-4.517	2.136	-0.122	47.57	-13.39	-70.09	-31.075	-8.208	-18.508	0.77084	0.26773	-0.31821	-0.48242	24.5	13113	100	44.308416647859026	1	2.401
2025-05-20 11:27:14.927	WT901BLE68(66B8CDDB35E6)	0.234	0.741	0.666	-4.517	2.136	-0.122	47.55	-13.39	-70.08	-31.075	-8.208	-18.508	0.77084	0.26773	-0.31821	-0.48242	24.5	13113	100	44.308416647859026	1	2.401
2025-05-20 11:27:14.927	WT901BLE68(66B8CDDB35E6)	0.229	0.741	0.666	-4.517	2.136	-0.122	47.53	-13.38	-70.07	-31.075	-8.208	-18.508	0.77084	0.26773	-0.31821	-0.48242	24.5	13113	100	44.308416647859026	1	2.401
2025-05-20 11:27:14.985	WT901BLE68(66B8CDDB35E6)	0.229	0.737	0.667	-4.395	2.38	0.305	47.5	-13.37	-70.06	-31.075	-8.208	-18.508	0.77084	0.26773	-0.31821	-0.48242	24.5	13113	100	44.308416647859026	1	2.459
2025-05-20 11:27:14.985	WT901BLE68(66B8CDDB35E6)	0.229	0.737	0.667	-4.395	2.38	0.305	47.48	-13.36	-70.05	-31.075	-8.208	-18.508	0.77084	0.26773	-0.31821	-0.48242	24.5	13113	100	44.308416647859026	1	2.459
2025-05-20 11:27:14.985	WT901BLE68(66B8CDDB35E6)	0.229	0.737	0.667	-4.395	2.38	0.305	47.46	-13.35	-70.04	-31.075	-8.208	-18.508	0.77084	0.26773	-0.31821	-0.48242	24.5	13113	100	44.308416647859026	1	2.459
2025-05-20 11:27:14.986	WT901BLE68(66B8CDDB35E6)	0.228	0.737	0.667	-4.395	2.38	0.305	47.44	-13.35	-70.04	-31.075	-8.208	-18.508	0.77084	0.26773	-0.31821	-0.48242	24.5	13113	100	44.308416647859026	1	2.46
2025-05-20 11:27:14.986	WT901BLE68(66B8CDDB35E6)	0.228	0.737	0.666	-3.418	1.465	0.61	47.43	-13.34	-70.03	-31.075	-8.208	-18.508	0.77084	0.26773	-0.31821	-0.48242	24.5	13113	100	44.308416647859026	1	2.46
2025-05-20 11:27:14.986	WT901BLE68(66B8CDDB35E6)	0.228	0.737	0.666	-3.418	1.465	0.61	47.41	-13.34	-70.03	-31.075	-8.208	-18.508	0.77084	0.26773	-0.31821	-0.48242	24.5	13113	100	44.308416647859026	1	2.46
2025-05-20 11:27:14.986	WT901BLE68(66B8CDDB35E6)	0.228	0.737	0.666	-3.418	1.465	0.61	47.4	-13.34	-70.02	-31.075	-8.208	-18.508	0.77084	0.26773	-0.31821	-0.48242	24.5	13113	100	44.308416647859026	1	2.46
2025-05-20 11:27:14.986	WT901BLE68(66B8CDDB35E6)	0.232	0.737	0.666	-3.418	1.465	0.61	47.38	-13.33	-70.01	-31.075	-8.208	-18.508	0.77084	0.26773	-0.31821	-0.48242	24.5	13113	100	44.308416647859026	1	2.46
2025-05-20 11:27:15.180	WT901BLE68(66B8CDDB35E6)	0.232	0.733	0.666	-2.258	0.427	1.038	47.37	-13.34	-70.0	-31.075	-8.208	-18.508	0.77084	0.26773	-0.31821	-0.48242	24.5	13113	100	44.308416647859026	1	2.654
2025-05-20 11:27:15.180	WT901BLE68(66B8CDDB35E6)	0.232	0.733	0.666	-2.258	0.427	1.038	47.36	-13.34	-70.0	-31.075	-8.208	-18.508	0.77084	0.26773	-0.31821	-0.48242	24.5	13113	100	44.308416647859026	1	2.654
2025-05-20 11:27:15.180	WT901BLE68(66B8CDDB35E6)	0.232	0.733	0.666	-2.258	0.427	1.038	47.35	-13.34	-70.0	-31.075	-8.208	-18.508	0.77084	0.26773	-0.31821	-0.48242	24.5	13113	100	44.308416647859026	1	2.654
2025-05-20 11:27:15.180	WT901BLE68(66B8CDDB35E6)	0.231	0.733	0.666	-2.258	0.427	1.038	47.34	-13.34	-69.99	-31.075	-8.208	-18.508	0.77084	0.26773	-0.31821	-0.48242	24.5	13113	100	44.308416647859026	1	2.654
2025-05-20 11:27:15.180	WT901BLE68(66B8CDDB35E6)	0.231	0.737	0.664	-2.075	-0.061	1.465	47.33	-13.35	-69.98	-31.075	-8.208	-18.508	0.77084	0.26773	-0.31821	-0.48242	24.5	13113	100	44.308416647859026	1	2.654
2025-05-20 11:27:15.180	WT901BLE68(66B8CDDB35E6)	0.231	0.737	0.664	-2.075	-0.061	1.465	47.32	-13.35	-69.98	-31.075	-8.208	-18.508	0.77084	0.26773	-0.31821	-0.48242	24.5	13113	100	44.308416647859026	1	2.654
2025-05-20 11:27:15.180	WT901BLE68(66B8CDDB35E6)	0.231	0.737	0.664	-2.075	-0.061	1.465	47.31	-13.35	-69.98	-31.075	-8.208	-18.508	0.77084	0.26773	-0.31821	-0.48242	24.5	13113	100	44.308416647859026	1	2.654
2025-05-20 11:27:15.180	WT901BLE68(66B8CDDB35E6)	0.229	0.737	0.664	-2.075	-0.061	1.465	47.31	-13.36	-69.97	-31.075	-8.208	-18.508	0.77084	0.26773	-0.31821	-0.48242	24.5	13113	100	44.308416647859026	1	2.654
2025-05-20 11:27:15.760	WT901BLE68(66B8CDDB35E6)	0.229	0.733	0.665	-1.343	0.244	1.77	47.3	-13.36	-69.97	-31.075	-8.208	-18.508	0.77084	0.26773	-0.31821	-0.48242	24.5	13113	100	44.308416647859026	1	3.234
2025-05-20 11:27:15.760	WT901BLE68(66B8CDDB35E6)	0.229	0.733	0.665	-1.343	0.244	1.77	47.29	-13.37	-69.96	-31.075	-8.208	-18.508	0.77084	0.26773	-0.31821	-0.48242	24.5	13113	100	44.308416647859026	1	3.234
2025-05-20 11:27:15.760	WT901BLE68(66B8CDDB35E6)	0.229	0.733	0.665	-1.343	0.244	1.77	47.29	-13.38	-69.96	-31.075	-8.208	-18.508	0.77084	0.26773	-0.31821	-0.48242	24.5	13113	100	44.308416647859026	1	3.234
2025-05-20 11:27:15.760	WT901BLE68(66B8CDDB35E6)	0.224	0.733	0.665	-1.343	0.244	1.77	47.28	-13.38	-69.94	-31.075	-8.208	-18.508	0.77084	0.26773	-0.31821	-0.48242	24.5	13113	100	44.308416647859026	1	3.234
2025-05-20 11:27:15.760	WT901BLE68(66B8CDDB35E6)	0.224	0.738	0.668	-0.427	-0.061	1.953	47.28	-13.39	-69.94	-31.075	-8.208	-18.508	0.77084	0.26773	-0.31821	-0.48242	24.5	13113	100	44.308416647859026	1	3.234
2025-05-20 11:27:15.760	WT901BLE68(66B8CDDB35E6)	0.224	0.738	0.668	-0.427	-0.061	1.953	47.28	-13.39	-69.94	-31.075	-8.208	-18.508	0.77084	0.26773	-0.31821	-0.48242	24.5	13113	100	44.308416647859026	1	3.234
2025-05-20 11:27:15.760	WT901BLE68(66B8CDDB35E6)	0.224	0.738	0.668	-0.427	-0.061	1.953	47.28	-13.4	-69.93	-31.075	-8.208	-18.508	0.77084	0.26773	-0.31821	-0.48242	24.5	13113	100	44.308416647859026	1	3.234
2025-05-20 11:27:15.770	WT901BLE68(66B8CDDB35E6)	0.228	0.738	0.668	-0.427	-0.061	1.953	47.27	-13.41	-69.92	-31.075	-8.208	-18.508	0.77084	0.26773	-0.31821	-0.48242	24.5	13113	100	44.308416647859026	1	3.244
2025-05-20 11:27:15.107	WT901BLE68(66B8CDDB35E6)	0.228	0.739	0.669	-0.488	0.732	2.197	47.27	-13.41	-69.92	-30.475	-7.092	-18.825	0.77084	0.26773	-0.31821	-0.48242	24.5	13113	100	44.308416647859026	1	2.581
2025-05-20 11:27:15.107	WT901BLE68(66B8CDDB35E6)	0.228	0.739	0.669	-0.488	0.732	2.197	47.27	-13.41	-69.91	-30.475	-7.092	-18.825	0.77084	0.26773	-0.31821	-0.48242	24.5	13113	100	44.308416647859026	1	2.581
2025-05-20 11:27:15.107	WT901BLE68(66B8CDDB35E6)	0.228	0.739	0.669	-0.488	0.732	2.197	47.27	-13.42	-69.9	-30.475	-7.092	-18.825	0.77084	0.26773	-0.31821	-0.48242	24.5	13113	100	44.308416647859026	1	2.581
2025-05-20 11:27:15.107	WT901BLE68(66B8CDDB35E6)	0.226	0.739	0.669	-0.488	0.732	2.197	47.27	-13.43	-69.88	-30.475	-7.092	-18.825	0.77084	0.26773	-0.31821	-0.48242	24.5	13113	100	44.308416647859026	1	2.581
2025-05-20 11:27:15.107	WT901BLE68(66B8CDDB35E6)	0.226	0.737	0.673	-0.854	0.977	2.319	47.26	-13.43	-69.88	-30.475	-7.092	-18.825	0.77084	0.26773	-0.31821	-0.48242	24.5	13113	100	44.308416647859026	1	2.581
2025-05-20 11:27:15.107	WT901BLE68(66B8CDDB35E6)	0.226	0.737	0.673	-0.854	0.977	2.319	47.26	-13.43	-69.87	-30.475	-7.092	-18.825	0.77084	0.26773	-0.31821	-0.48242	24.5	13113	100	44.308416647859026	1	2.581
2025-05-20 11:27:15.107	WT901BLE68(66B8CDDB35E6)	0.226	0.737	0.673	-0.854	0.977	2.319	47.25	-13.44	-69.86	-30.475	-7.092	-18.825	0.77084	0.26773	-0.31821	-0.48242	24.5	13113	100	44.308416647859026	1	2.581
2025-05-20 11:27:15.107	WT901BLE68(66B8CDDB35E6)	0.225	0.737	0.673	-0.854	0.977	2.319	47.25	-13.44	-69.86	-30.475	-7.092	-18.825	0.77084	0.26773	-0.31821	-0.48242	24.5	13113	100	44.308416647859026	1	2.581
2025-05-20 11:27:15.137	WT901BLE68(66B8CDDB35E6)	0.225	0.737	0.672	-0.305	0.305	1.831	47.25	-13.44	-69.86	-30.475	-7.092	-18.825	0.77084	0.26773	-0.31821	-0.48242	24.5	13113	100	44.308416647859026	1	2.611
2025-05-20 11:27:15.137	WT901BLE68(66B8CDDB35E6)	0.225	0.737	0.672	-0.305	0.305	1.831	47.25	-13.45	-69.86	-30.475	-7.092	-18.825	0.77084	0.26773	-0.31821	-0.48242	24.5	13113	100	44.308416647859026	1	2.611
2025-05-20 11:27:15.138	WT901BLE68(66B8CDDB35E6)	0.225	0.737	0.672	-0.305	0.305	1.831	47.24	-13.45	-69.85	-30.475	-7.092	-18.825	0.77084	0.26773	-0.31821	-0.48242	24.5	13113	100	44.308416647859026	1	2.612
2025-05-20 11:27:15.138	WT901BLE68(66B8CDDB35E6)	0.229	0.737	0.672	-0.305	0.305	1.831	47.24	-13.46	-69.85	-30.475	-7.092	-18.825	0.77084	0.26773	-0.31821	-0.48242	24.5	13113	100	44.308416647859026	1	2.612
2025-05-20 11:27:15.138	WT901BLE68(66B8CDDB35E6)	0.229	0.736	0.671	-0.244	0.0	1.221	47.24	-13.46	-69.86	-30.475	-7.092	-18.825	0.77084	0.26773	-0.31821	-0.48242	24.5	13113	100	44.308416647859026	1	2.612
2025-05-20 11:27:15.138	WT901BLE68(66B8CDDB35E6)	0.229	0.736	0.671	-0.244	0.0	1.221	47.24	-13.46	-69.86	-30.475	-7.092	-18.825	0.77084	0.26773	-0.31821	-0.48242	24.5	13113	100	44.308416647859026	1	2.612
2025-05-20 11:27:15.138	WT901BLE68(66B8CDDB35E6)	0.229	0.736	0.671	-0.244	0.0	1.221	47.24	-13.46	-69.86	-30.475	-7.092	-18.825	0.77084	0.26773	-0.31821	-0.48242	24.5	13113	100	44.308416647859026	1	2.612
2025-05-20 11:27:15.138	WT901BLE68(66B8CDDB35E6)	0.228	0.736	0.671	-0.244	0.0	1.221	47.24	-13.47	-69.86	-30.475	-7.092	-18.825	0.77084	0.26773	-0.31821	-0.48242	24.5	13113	100	44.308416647859026	1	2.612
2025-05-20 11:27:15.196	WT901BLE68(66B8CDDB35E6)	0.228	0.734	0.669	-0.244	0.305	0.671	47.24	-13.47	-69.87	-30.475	-7.092	-18.825	0.77084	0.26773	-0.31821	-0.48242	24.5	13113	100	44.308416647859026	1	2.67
2025-05-20 11:27:15.197	WT901BLE68(66B8CDDB35E6)	0.228	0.734	0.669	-0.244	0.305	0.671	47.24	-13.47	-69.87	-30.475	-7.092	-18.825	0.77084	0.26773	-0.31821	-0.48242	24.5	13113	100	44.308416647859026	1	2.671
2025-05-20 11:27:15.197	WT901BLE68(66B8CDDB35E6)	0.223	0.734	0.669	-0.244	0.305	0.671	47.24	-13.47	-69.87	-30.475	-7.092	-18.825	0.77084	0.26773	-0.31821	-0.48242	24.5	13113	100	44.308416647859026	1	2.671
2025-05-20 11:27:15.197	WT901BLE68(66B8CDDB35E6)	0.223	0.734	0.672	-0.122	0.122	0.183	47.24	-13.46	-69.88	-30.475	-7.092	-18.825	0.77084	0.26773	-0.31821	-0.48242	24.5	13113	100	44.308416647859026	1	2.671
2025-05-20 11:27:15.197	WT901BLE68(66B8CDDB35E6)	0.223	0.734	0.672	-0.122	0.122	0.183	47.24	-13.46	-69.88	-30.475	-7.092	-18.825	0.77084	0.26773	-0.31821	-0.48242	24.5	13113	100	44.308416647859026	1	2.671
2025-05-20 11:27:15.197	WT901BLE68(66B8CDDB35E6)	0.223	0.734	0.672	-0.122	0.122	0.183	47.24	-13.46	-69.89	-30.475	-7.092	-18.825	0.77084	0.26773	-0.31821	-0.48242	24.5	13113	100	44.308416647859026	1	2.671
2025-05-20 11:27:15.197	WT901BLE68(66B8CDDB35E6)	0.225	0.734	0.672	-0.122	0.122	0.183	47.24	-13.46	-69.9	-30.475	-7.092	-18.825	0.77084	0.26773	-0.31821	-0.48242	24.5	13113	100	44.308416647859026	1	2.671
2025-05-20 11:27:15.197	WT901BLE68(66B8CDDB35E6)	0.225	0.735	0.675	-0.549	0.366	-0.244	47.24	-13.46	-69.91	-30.475	-7.092	-18.825	0.77084	0.26773	-0.31821	-0.48242	24.5	13113	100	44.308416647859026	1	2.671
2025-05-20 11:27:15.226	WT901BLE68(66B8CDDB35E6)	0.225	0.735	0.675	-0.549	0.366	-0.244	47.24	-13.45	-69.91	-30.475	-7.092	-18.825	0.77084	0.26773	-0.31821	-0.48242	24.5	13113	100	44.308416647859026	1	2.7
2025-05-20 11:27:15.226	WT901BLE68(66B8CDDB35E6)	0.225	0.735	0.675	-0.549	0.366	-0.244	47.24	-13.45	-69.92	-30.475	-7.092	-18.825	0.77084	0.26773	-0.31821	-0.48242	24.5	13113	100	44.308416647859026	1	2.7
2025-05-20 11:27:15.226	WT901BLE68(66B8CDDB35E6)	0.226	0.735	0.675	-0.549	0.366	-0.244	47.24	-13.45	-69.92	-30.475	-7.092	-18.825	0.77084	0.26773	-0.31821	-0.48242	24.5	13113	100	44.308416647859026	1	2.7
2025-05-20 11:27:15.226	WT901BLE68(66B8CDDB35E6)	0.226	0.735	0.673	-1.404	0.793	-0.549	47.23	-13.44	-69.93	-30.475	-7.092	-18.825	0.77084	0.26773	-0.31821	-0.48242	24.5	13113	100	44.308416647859026	1	2.7
2025-05-20 11:27:15.226	WT901BLE68(66B8CDDB35E6)	0.226	0.735	0.673	-1.404	0.793	-0.549	47.22	-13.43	-69.93	-30.475	-7.092	-18.825	0.77084	0.26773	-0.31821	-0.48242	24.5	13113	100	44.308416647859026	1	2.7
2025-05-20 11:27:15.226	WT901BLE68(66B8CDDB35E6)	0.226	0.735	0.673	-1.404	0.793	-0.549	47.22	-13.43	-69.94	-30.475	-7.092	-18.825	0.77084	0.26773	-0.31821	-0.48242	24.5	13113	100	44.308416647859026	1	2.7
2025-05-20 11:27:15.226	WT901BLE68(66B8CDDB35E6)	0.224	0.735	0.673	-1.404	0.793	-0.549	47.21	-13.42	-69.94	-30.475	-7.092	-18.825	0.77084	0.26773	-0.31821	-0.48242	24.5	13113	100	44.308416647859026	1	2.7
2025-05-20 11:27:15.226	WT901BLE68(66B8CDDB35E6)	0.224	0.731	0.671	-1.16	-0.122	-0.732	47.21	-13.41	-69.95	-30.475	-7.092	-18.825	0.77084	0.26773	-0.31821	-0.48242	24.5	13113	100	44.308416647859026	1	2.7
2025-05-20 11:27:15.256	WT901BLE68(66B8CDDB35E6)	0.224	0.731	0.671	-1.16	-0.122	-0.732	47.21	-13.41	-69.96	-30.475	-7.092	-18.825	0.77084	0.26773	-0.31821	-0.48242	24.5	13113	100	44.308416647859026	1	2.73
2025-05-20 11:27:15.256	WT901BLE68(66B8CDDB35E6)	0.224	0.731	0.671	-1.16	-0.122	-0.732	47.2	-13.41	-69.96	-30.475	-7.092	-18.825	0.77084	0.26773	-0.31821	-0.48242	24.5	13113	100	42.59892596436131	1	2.73
2025-05-20 11:27:15.256	WT901BLE68(66B8CDDB35E6)	0.22	0.731	0.671	-1.16	-0.122	-0.732	47.2	-13.4	-69.96	-30.475	-7.092	-18.825	0.77084	0.26773	-0.31821	-0.48242	24.5	13113	100	42.59892596436131	1	2.73
2025-05-20 11:27:15.256	WT901BLE68(66B8CDDB35E6)	0.22	0.731	0.675	-0.244	-1.404	-0.732	47.2	-13.4	-69.97	-30.475	-7.092	-18.825	0.77084	0.26773	-0.31821	-0.48242	24.5	13113	100	42.59892596436131	1	2.73
2025-05-20 11:27:15.256	WT901BLE68(66B8CDDB35E6)	0.22	0.731	0.675	-0.244	-1.404	-0.732	47.2	-13.4	-69.98	-30.475	-7.092	-18.825	0.77084	0.26773	-0.31821	-0.48242	24.5	13113	100	42.59892596436131	1	2.73
2025-05-20 11:27:15.256	WT901BLE68(66B8CDDB35E6)	0.22	0.731	0.675	-0.244	-1.404	-0.732	47.2	-13.4	-69.99	-30.475	-7.092	-18.825	0.77084	0.26773	-0.31821	-0.48242	24.5	13113	100	42.59892596436131	1	2.73
2025-05-20 11:27:15.256	WT901BLE68(66B8CDDB35E6)	0.225	0.731	0.675	-0.244	-1.404	-0.732	47.21	-13.4	-70.0	-30.475	-7.092	-18.825	0.77084	0.26773	-0.31821	-0.48242	24.5	13113	100	42.59892596436131	1	2.73
2025-05-20 11:27:15.256	WT901BLE68(66B8CDDB35E6)	0.225	0.731	0.675	-0.061	-1.587	-0.671	47.21	-13.4	-70.02	-30.475	-7.092	-18.825	0.77084	0.26773	-0.31821	-0.48242	24.5	13113	100	42.59892596436131	1	2.73
2025-05-20 11:27:15.317	WT901BLE68(66B8CDDB35E6)	0.225	0.731	0.675	-0.061	-1.587	-0.671	47.21	-13.4	-70.03	-30.475	-7.092	-18.825	0.77084	0.26773	-0.31821	-0.48242	24.5	13113	100	42.59892596436131	1	2.791
2025-05-20 11:27:15.317	WT901BLE68(66B8CDDB35E6)	0.225	0.731	0.675	-0.061	-1.587	-0.671	47.21	-13.41	-70.04	-30.475	-7.092	-18.825	0.77084	0.26773	-0.31821	-0.48242	24.5	13113	100	42.59892596436131	1	2.791
2025-05-20 11:27:15.317	WT901BLE68(66B8CDDB35E6)	0.23	0.731	0.675	-0.061	-1.587	-0.671	47.22	-13.41	-70.06	-30.475	-7.092	-18.825	0.77197	0.26428	-0.31589	-0.48404	24.5	13113	100	42.223525017206526	1	2.791
2025-05-20 11:27:15.317	WT901BLE68(66B8CDDB35E6)	0.23	0.731	0.672	-0.305	-1.465	-0.427	47.22	-13.41	-70.07	-30.475	-7.092	-18.825	0.77197	0.26428	-0.31589	-0.48404	24.5	13113	100	42.223525017206526	1	2.791
2025-05-20 11:27:15.317	WT901BLE68(66B8CDDB35E6)	0.23	0.731	0.672	-0.305	-1.465	-0.427	47.22	-13.41	-70.08	-30.475	-7.092	-18.825	0.77197	0.26428	-0.31589	-0.48404	24.5	13113	100	42.223525017206526	1	2.791
2025-05-20 11:27:15.317	WT901BLE68(66B8CDDB35E6)	0.23	0.731	0.672	-0.305	-1.465	-0.427	47.22	-13.41	-70.09	-30.475	-7.092	-18.825	0.77197	0.26428	-0.31589	-0.48404	24.5	13113	100	42.223525017206526	1	2.791
2025-05-20 11:27:15.317	WT901BLE68(66B8CDDB35E6)	0.23	0.731	0.672	-0.305	-1.465	-0.427	47.22	-13.41	-70.11	-30.475	-7.092	-18.825	0.77197	0.26428	-0.31589	-0.48404	24.5	13113	100	42.223525017206526	1	2.791
2025-05-20 11:27:15.317	WT901BLE68(66B8CDDB35E6)	0.23	0.733	0.669	-0.488	-1.343	-0.122	47.22	-13.41	-70.13	-30.475	-7.092	-18.825	0.77197	0.26428	-0.31589	-0.48404	24.5	13113	100	42.223525017206526	1	2.791
2025-05-20 11:27:15.376	WT901BLE68(66B8CDDB35E6)	0.23	0.733	0.669	-0.488	-1.343	-0.122	47.22	-13.42	-70.14	-30.475	-7.092	-18.825	0.77197	0.26428	-0.31589	-0.48404	24.5	13113	100	42.223525017206526	1	2.85
2025-05-20 11:27:15.377	WT901BLE68(66B8CDDB35E6)	0.23	0.733	0.669	-0.488	-1.343	-0.122	47.22	-13.42	-70.15	-30.475	-7.092	-18.825	0.77197	0.26428	-0.31589	-0.48404	24.5	13113	100	42.223525017206526	1	2.851
2025-05-20 11:27:15.377	WT901BLE68(66B8CDDB35E6)	0.23	0.733	0.669	-0.488	-1.343	-0.122	47.22	-13.43	-70.16	-30.475	-7.092	-18.825	0.77197	0.26428	-0.31589	-0.48404	24.5	13113	100	42.223525017206526	1	2.851
2025-05-20 11:27:15.377	WT901BLE68(66B8CDDB35E6)	0.23	0.734	0.674	-0.793	-1.709	0.244	47.22	-13.43	-70.18	-30.475	-7.092	-18.825	0.77197	0.26428	-0.31589	-0.48404	24.5	13113	100	42.223525017206526	1	2.851
2025-05-20 11:27:15.377	WT901BLE68(66B8CDDB35E6)	0.23	0.734	0.674	-0.793	-1.709	0.244	47.21	-13.43	-70.19	-30.475	-7.092	-18.825	0.77197	0.26428	-0.31589	-0.48404	24.5	13113	100	42.223525017206526	1	2.851
2025-05-20 11:27:15.377	WT901BLE68(66B8CDDB35E6)	0.23	0.734	0.674	-0.793	-1.709	0.244	47.21	-13.44	-70.2	-30.475	-7.092	-18.825	0.77197	0.26428	-0.31589	-0.48404	24.5	13113	100	42.223525017206526	1	2.851
2025-05-20 11:27:15.377	WT901BLE68(66B8CDDB35E6)	0.226	0.734	0.674	-0.793	-1.709	0.244	47.21	-13.44	-70.21	-30.475	-7.092	-18.825	0.77197	0.26428	-0.31589	-0.48404	24.5	13113	100	42.223525017206526	1	2.851
2025-05-20 11:27:15.377	WT901BLE68(66B8CDDB35E6)	0.226	0.729	0.673	-0.61	-2.686	0.427	47.21	-13.45	-70.22	-30.475	-7.092	-18.825	0.77197	0.26428	-0.31589	-0.48404	24.5	13113	100	42.223525017206526	1	2.851
2025-05-20 11:27:15.377	WT901BLE68(66B8CDDB35E6)	0.226	0.729	0.673	-0.61	-2.686	0.427	47.21	-13.46	-70.24	-30.475	-7.092	-18.825	0.77197	0.26428	-0.31589	-0.48404	24.5	13113	100	42.223525017206526	1	2.851
2025-05-20 11:27:15.377	WT901BLE68(66B8CDDB35E6)	0.226	0.729	0.673	-0.61	-2.686	0.427	47.21	-13.47	-70.25	-30.475	-7.092	-18.825	0.77197	0.26428	-0.31589	-0.48404	24.5	13113	100	42.223525017206526	1	2.851
2025-05-20 11:27:15.377	WT901BLE68(66B8CDDB35E6)	0.23	0.729	0.673	-0.61	-2.686	0.427	47.21	-13.48	-70.27	-30.475	-7.092	-18.825	0.77197	0.26428	-0.31589	-0.48404	24.5	13113	100	42.223525017206526	1	2.851
2025-05-20 11:27:15.377	WT901BLE68(66B8CDDB35E6)	0.23	0.726	0.671	0.671	-3.174	0.793	47.22	-13.49	-70.29	-30.475	-7.092	-18.825	0.77197	0.26428	-0.31589	-0.48404	24.5	13113	100	42.223525017206526	1	2.851
2025-05-20 11:27:15.377	WT901BLE68(66B8CDDB35E6)	0.23	0.726	0.671	0.671	-3.174	0.793	47.22	-13.5	-70.3	-30.475	-7.092	-18.825	0.77197	0.26428	-0.31589	-0.48404	24.5	13113	100	42.223525017206526	1	2.851
2025-05-20 11:27:15.377	WT901BLE68(66B8CDDB35E6)	0.23	0.726	0.671	0.671	-3.174	0.793	47.23	-13.51	-70.32	-30.475	-7.092	-18.825	0.77197	0.26428	-0.31589	-0.48404	24.5	13113	100	42.223525017206526	1	2.851
2025-05-20 11:27:15.377	WT901BLE68(66B8CDDB35E6)	0.228	0.726	0.671	0.671	-3.174	0.793	47.24	-13.52	-70.33	-30.475	-7.092	-18.825	0.77197	0.26428	-0.31589	-0.48404	24.5	13113	100	42.223525017206526	1	2.851
2025-05-20 11:27:15.377	WT901BLE68(66B8CDDB35E6)	0.228	0.735	0.673	1.587	-3.113	0.854	47.25	-13.54	-70.35	-30.475	-7.092	-18.825	0.77197	0.26428	-0.31589	-0.48404	24.5	13113	100	42.223525017206526	1	2.851
2025-05-20 11:27:15.436	WT901BLE68(66B8CDDB35E6)	0.228	0.735	0.673	1.587	-3.113	0.854	47.26	-13.55	-70.36	-30.475	-7.092	-18.825	0.77197	0.26428	-0.31589	-0.48404	24.5	13113	100	42.223525017206526	1	2.91
2025-05-20 11:27:15.436	WT901BLE68(66B8CDDB35E6)	0.228	0.735	0.673	1.587	-3.113	0.854	47.27	-13.56	-70.38	-30.475	-7.092	-18.825	0.77197	0.26428	-0.31589	-0.48404	24.5	13113	100	42.223525017206526	1	2.91
2025-05-20 11:27:15.436	WT901BLE68(66B8CDDB35E6)	0.231	0.735	0.673	1.587	-3.113	0.854	47.28	-13.57	-70.39	-30.475	-7.092	-18.825	0.77197	0.26428	-0.31589	-0.48404	24.5	13113	100	42.223525017206526	1	2.91
2025-05-20 11:27:15.436	WT901BLE68(66B8CDDB35E6)	0.231	0.738	0.672	1.099	-2.563	0.366	47.29	-13.58	-70.4	-30.475	-7.092	-18.825	0.77197	0.26428	-0.31589	-0.48404	24.5	13113	100	42.223525017206526	1	2.91
2025-05-20 11:27:15.436	WT901BLE68(66B8CDDB35E6)	0.231	0.738	0.672	1.099	-2.563	0.366	47.3	-13.59	-70.42	-30.475	-7.092	-18.825	0.77197	0.26428	-0.31589	-0.48404	24.5	13113	100	42.223525017206526	1	2.91
2025-05-20 11:27:15.436	WT901BLE68(66B8CDDB35E6)	0.231	0.738	0.672	1.099	-2.563	0.366	47.3	-13.6	-70.43	-30.475	-7.092	-18.825	0.77197	0.26428	-0.31589	-0.48404	24.5	13113	100	42.223525017206526	1	2.91
2025-05-20 11:27:15.436	WT901BLE68(66B8CDDB35E6)	0.233	0.738	0.672	1.099	-2.563	0.366	47.31	-13.61	-70.46	-30.475	-7.092	-18.825	0.77197	0.26428	-0.31589	-0.48404	24.5	13113	100	42.223525017206526	1	2.91
2025-05-20 11:27:15.437	WT901BLE68(66B8CDDB35E6)	0.233	0.737	0.671	0.122	-1.953	-0.183	47.31	-13.61	-70.47	-30.475	-7.092	-18.825	0.77197	0.26428	-0.31589	-0.48404	24.5	13113	100	42.223525017206526	1	2.911
2025-05-20 11:27:15.467	WT901BLE68(66B8CDDB35E6)	0.233	0.737	0.671	0.122	-1.953	-0.183	47.32	-13.61	-70.48	-30.475	-7.092	-18.825	0.77197	0.26428	-0.31589	-0.48404	24.5	13113	100	42.223525017206526	1	2.941
