time,DeviceName,AccX(g),AccY(g),AccZ(g),AsX(°/s),AsY(°/s),AsZ(°/s),AngleX(°),AngleY(°),AngleZ(°),HX(uT),HY(uT),HZ(uT),Q0(),Q1(),Q2(),Q3(),Temperature(°C),Version(),Battery level(%),Elapsed_sec,Beta (deg)
2025-05-21 22:28:31.653,WT901BLE68(4F145CEDD531),0.061,0.029,1.031,0.122,0.061,0.0,1.47,-3.25,-100.51,-58.375,-11.058,-22.983,-0.6393438664620629,0.013550717790369229,0.028021484316320722,0.7682906968598642,25.6,13113,90,0.0,100.42267795961675
2025-05-21 22:28:31.721,WT901BLE68(4F145CEDD531),0.064,0.017,1.028,-0.305,-0.061,0.0,1.47,-3.25,-100.5,-58.375,-11.058,-22.983,-0.6393438664620629,0.013550717790369229,0.028021484316320722,0.7682906968598642,25.6,13113,90,0.0,100.42267795961675
2025-05-21 22:28:31.856,WT901BLE68(4F145CEDD531),0.053,0.03,1.032,0.549,0.122,0.0,1.47,-3.25,-100.49,-58.342,-10.758,-22.675,-0.6393438664620629,0.013550717790369229,0.028021484316320722,0.7682906968598642,25.6,13113,90,0.0,100.42267795961675
2025-05-21 22:28:31.925,WT901BLE68(4F145CEDD531),0.055,0.03,1.03,-0.122,-0.061,0.0,1.49,-3.24,-100.49,-58.342,-10.758,-22.675,-0.6393438664620629,0.013550717790369229,0.028021484316320722,0.7682906968598642,25.6,13113,90,0.0,100.42267795961675
2025-05-21 22:28:32.340,WT901BLE68(4F145CEDD531),0.046,0.02,1.03,-0.061,0.0,0.0,1.48,-3.25,-100.48,-58.342,-10.758,-22.675,-0.6395298722106727,0.013550632945198773,0.028021308865274513,0.7681358793510833,25.6,13113,90,0.0,100.3949642239863
2025-05-21 22:28:32.126,WT901BLE68(4F145CEDD531),0.054,0.02,0.99,10.01,3.052,-0.244,0.91,-3.41,-100.48,-58.342,-10.758,-22.675,-0.6395298722106727,0.013550632945198773,0.028021308865274513,0.7681358793510833,25.6,13113,90,0.0,100.3949642239863
2025-05-21 22:28:32.238,WT901BLE68(4F145CEDD531),0.057,0.008,1.026,1.404,0.305,0.122,1.09,-3.32,-99.87,-58.758,-9.992,-23.017,-0.6395298722106727,0.013550632945198773,0.028021308865274513,0.7681358793510833,25.6,13113,90,0.0,100.3949642239863
2025-05-21 22:28:32.330,WT901BLE68(4F145CEDD531),0.052,-0.051,1.03,1.892,0.488,2.197,1.07,-3.33,-99.8,-58.758,-9.992,-23.017,-0.6395298722106727,0.013550632945198773,0.028021308865274513,0.7681358793510833,25.6,13113,90,0.0,100.3949642239863
2025-05-21 22:28:32.441,WT901BLE68(4F145CEDD531),0.06,0.072,1.033,-23.987,-4.333,33.813,0.75,-3.38,-96.59,-58.758,-9.992,-23.017,-0.6654443932177353,0.016420848704761296,0.025571321643163603,0.7458285478394596,25.6,13113,90,0.044,96.49172610174026
2025-05-21 22:28:32.533,WT901BLE68(4F145CEDD531),0.06,0.023,1.033,0.244,0.061,0.061,0.77,-3.39,-96.58,-58.758,-9.992,-23.017,-0.6654443932177353,0.016420848704761296,0.025571321643163603,0.7458285478394596,25.6,13113,90,0.045,96.49172610174026
2025-05-21 22:28:32.643,WT901BLE68(4F145CEDD531),0.059,0.017,1.029,0.0,-0.061,0.0,0.81,-3.39,-96.65,-59.183,-8.425,-23.483,-0.6654443932177353,0.016420848704761296,0.025571321643163603,0.7458285478394596,25.6,13113,90,0.045,96.49172610174026
2025-05-21 22:28:32.733,WT901BLE68(4F145CEDD531),0.209,0.022,1.031,-0.183,0.0,0.061,0.82,-3.39,-96.73,-59.183,-8.425,-23.483,-0.6654443932177353,0.016420848704761296,0.025571321643163603,0.7458285478394596,25.6,13113,90,0.045,96.49172610174026
2025-05-21 22:28:32.847,WT901BLE68(4F145CEDD531),0.029,0.665,1.024,14.893,2.93,-82.947,1.29,-3.32,-99.44,-59.183,-8.425,-23.483,-0.6263008545059634,0.004880162499184233,0.0376612540408357,0.7786559276106189,25.6,13113,90,0.045,102.27814818544215
2025-05-21 22:28:32.937,WT901BLE68(4F145CEDD531),0.023,0.058,1.045,-1.038,-2.258,-14.709,3.57,-3.27,-103.36,-59.183,-8.425,-23.483,-0.6263008545059634,0.004880162499184233,0.0376612540408357,0.7786559276106189,25.6,13113,90,0.045,102.27814818544215
2025-05-21 22:28:33.470,WT901BLE68(4F145CEDD531),0.185,0.218,1.244,90.576,-54.26,11.78,8.66,-4.08,-107.7,-58.958,-18.708,-17.8,-0.6263008545059634,0.004880162499184233,0.0376612540408357,0.7786559276106189,25.6,13113,90,0.045,102.27814818544215
2025-05-21 22:28:33.139,WT901BLE68(4F145CEDD531),0.203,0.145,0.798,127.808,50.476,-29.541,18.88,-10.97,-109.98,-58.958,-18.708,-17.8,-0.6263008545059634,0.004880162499184233,0.0376612540408357,0.7786559276106189,25.6,13113,90,0.045,102.27814818544215
2025-05-21 22:28:33.253,WT901BLE68(4F145CEDD531),0.091,0.458,0.867,74.036,-12.085,-16.724,28.39,-9.5,-112.1,-58.958,-18.708,-17.8,-0.5494401962772741,-0.09332512898672253,0.269754825255878,0.7852631566968953,25.6,13113,90,0.087,104.51867860505234
2025-05-21 22:28:33.342,WT901BLE68(4F145CEDD531),-0.105,0.645,0.829,161.682,171.021,-42.114,38.64,-3.12,-110.98,-58.958,-18.708,-17.8,-0.5494401962772741,-0.09332512898672253,0.269754825255878,0.7852631566968953,25.6,13113,90,0.087,104.51867860505234
2025-05-21 22:28:33.453,WT901BLE68(4F145CEDD531),-0.023,0.834,0.538,48.523,9.644,20.691,48.36,-2.35,-108.28,-50.25,-42.767,0.108,-0.5494401962772741,-0.09332512898672253,0.269754825255878,0.7852631566968953,25.6,13113,90,0.087,104.51867860505234
2025-05-21 22:28:33.545,WT901BLE68(4F145CEDD531),0.035,0.866,0.569,-9.338,-102.6,-14.771,51.48,-3.47,-107.95,-50.25,-42.767,0.108,-0.5494401962772741,-0.09332512898672253,0.269754825255878,0.7852631566968953,25.6,13113,90,0.087,104.51867860505234
2025-05-21 22:28:33.655,WT901BLE68(4F145CEDD531),-0.079,0.626,0.962,-124.084,127.38,-16.052,36.31,-2.94,-112.47,-50.25,-42.767,0.108,-0.5566307679195671,-0.17770663024255234,0.19574730334089588,0.7875693842499701,25.6,13113,90,0.087,107.67939034431839
2025-05-21 22:28:33.748,WT901BLE68(4F145CEDD531),0.122,0.468,0.736,30.823,-25.513,11.658,26.4,6.71,-108.83,-50.25,-42.767,0.108,-0.5566307679195671,-0.17770663024255234,0.19574730334089588,0.7875693842499701,25.6,13113,90,0.087,107.67939034431839
2025-05-21 22:28:33.860,WT901BLE68(4F145CEDD531),0.49,0.625,1.045,94.482,-164.307,89.05,33.37,-11.12,-111.91,-50.308,-35.317,-8.125,-0.5566307679195671,-0.17770663024255234,0.19574730334089588,0.7875693842499701,25.6,13113,90,0.087,107.67939034431839
2025-05-21 22:28:33.950,WT901BLE68(4F145CEDD531),0.429,0.497,0.697,72.021,-32.837,55.359,38.11,-19.98,-111.42,-50.308,-35.317,-8.125,-0.5566307679195671,-0.17770663024255234,0.19574730334089588,0.7875693842499701,25.6,13113,90,0.087,107.67939034431839
2025-05-21 22:28:34.630,WT901BLE68(4F145CEDD531),-0.067,0.493,0.865,397.339,10.681,-70.19,52.15,-24.74,-113.63,-50.308,-35.317,-8.125,-0.5138523487172822,-0.19154205821069842,0.5520947562042404,0.6280595384403636,25.6,13113,90,0.114,82.0848926289322
2025-05-21 22:28:34.152,WT901BLE68(4F145CEDD531),-0.283,0.611,0.303,-18.982,-83.923,-66.101,73.67,-15.9,-119.58,-50.308,-35.317,-8.125,-0.5138523487172822,-0.19154205821069842,0.5520947562042404,0.6280595384403636,25.6,13113,90,0.114,82.0848926289322
2025-05-21 22:28:34.264,WT901BLE68(4F145CEDD531),0.003,0.763,-0.12,-71.899,10.01,-191.895,82.16,-2.49,-126.46,-41.65,-58.45,33.708,-0.5138523487172822,-0.19154205821069842,0.5520947562042404,0.6280595384403636,25.6,13113,90,0.114,82.0848926289322
2025-05-21 22:28:34.353,WT901BLE68(4F145CEDD531),0.137,0.584,0.327,-39.734,112.61,-24.658,73.29,8.97,-120.97,-41.65,-58.45,33.708,-0.5138523487172822,-0.19154205821069842,0.5520947562042404,0.6280595384403636,25.6,13113,90,0.114,82.0848926289322
2025-05-21 22:28:34.468,WT901BLE68(4F145CEDD531),-0.062,1.279,0.965,-174.988,28.748,-126.221,59.69,21.28,-119.44,-41.65,-58.45,33.708,-0.3162446290629694,-0.3593379851641754,0.2857022504291604,0.8302046561581602,25.6,13113,90,0.114,129.5481995597203
2025-05-21 22:28:34.535,WT901BLE68(4F145CEDD531),-0.366,1.895,0.833,-103.638,-136.108,-27.161,40.58,21.81,-134.13,-41.65,-58.45,33.708,-0.3162446290629694,-0.3593379851641754,0.2857022504291604,0.8302046561581602,25.6,13113,90,0.114,129.5481995597203
2025-05-21 22:28:34.668,WT901BLE68(4F145CEDD531),-0.454,1.276,0.621,-50.476,-162.842,67.566,32.22,5.37,-140.92,-32.658,-54.692,-14.717,-0.3162446290629694,-0.3593379851641754,0.2857022504291604,0.8302046561581602,25.6,13113,90,0.114,129.5481995597203
2025-05-21 22:28:34.736,WT901BLE68(4F145CEDD531),-0.378,0.976,0.396,80.933,-34.851,102.783,37.96,-6.88,-137.95,-32.658,-54.692,-14.717,-0.3162446290629694,-0.3593379851641754,0.2857022504291604,0.8302046561581602,25.6,13113,90,0.114,129.5481995597203
2025-05-21 22:28:34.874,WT901BLE68(4F145CEDD531),-0.408,0.803,0.618,56.763,139.832,133.911,45.73,-8.66,-122.83,-32.658,-54.692,-14.717,-0.5456018849273744,-0.16761286735432937,0.3427663135860552,0.7461472804557971,25.6,13113,90,0.158,99.76803243055826
2025-05-21 22:28:34.938,WT901BLE68(4F145CEDD531),-0.162,0.651,0.515,-368.958,240.173,216.736,32.22,-4.24,-97.65,-32.658,-54.692,-14.717,-0.5456018849273744,-0.16761286735432937,0.3427663135860552,0.7461472804557971,25.6,13113,90,0.158,99.76803243055826
2025-05-21 22:28:35.980,WT901BLE68(4F145CEDD531),-0.053,0.683,0.721,-15.564,59.875,1.221,40.71,3.55,-99.51,-50.042,-50.142,-15.95,-0.5456018849273744,-0.16761286735432937,0.3427663135860552,0.7461472804557971,25.6,13113,90,0.158,99.76803243055826
2025-05-21 22:28:35.142,WT901BLE68(4F145CEDD531),-0.069,0.793,0.72,-23.621,17.761,-56.519,42.79,8.6,-100.96,-50.042,-50.142,-15.95,-0.5456018849273744,-0.16761286735432937,0.3427663135860552,0.7461472804557971,25.6,13113,90,0.158,99.76803243055826
2025-05-21 22:28:35.276,WT901BLE68(4F145CEDD531),0.037,0.653,0.688,-12.207,-43.64,58.167,46.72,8.17,-105.17,-50.042,-50.142,-15.95,-0.5156859940655123,-0.27412381769634564,0.33283677722701743,0.7403673195255027,25.6,13113,90,0.158,104.27494644511323
2025-05-21 22:28:35.342,WT901BLE68(4F145CEDD531),0.022,0.68,0.644,46.997,-24.536,18.677,53.05,1.41,-108.96,-50.042,-50.142,-15.95,-0.5156859940655123,-0.27412381769634564,0.33283677722701743,0.7403673195255027,25.6,13113,90,0.158,104.27494644511323
2025-05-21 22:28:35.491,WT901BLE68(4F145CEDD531),-0.004,0.699,0.619,-89.905,24.048,-13.55,49.76,1.25,-108.79,-51.433,-54.917,-7.442,-0.5156859940655123,-0.27412381769634564,0.33283677722701743,0.7403673195255027,25.6,13113,90,0.158,104.27494644511323
2025-05-21 22:28:35.547,WT901BLE68(4F145CEDD531),0.053,0.592,0.469,241.76,-46.021,-19.47,48.09,3.18,-109.52,-51.433,-54.917,-7.442,-0.5156859940655123,-0.27412381769634564,0.33283677722701743,0.7403673195255027,25.6,13113,90,0.158,104.27494644511323
2025-05-21 22:28:35.693,WT901BLE68(4F145CEDD531),0.322,0.974,0.399,21.24,-16.968,71.838,63.7,-1.06,-111.87,-51.433,-54.917,-7.442,-0.5218135545171154,-0.2569115969172406,0.4554305580073201,0.6740104246410347,25.6,13113,90,0.201,92.32611662953086
2025-05-21 22:28:35.750,WT901BLE68(4F145CEDD531),0.358,0.643,0.417,-12.817,-4.761,44.189,62.46,-11.16,-106.62,-51.433,-54.917,-7.442,-0.5218135545171154,-0.2569115969172406,0.4554305580073201,0.6740104246410347,25.6,13113,90,0.201,92.32611662953086
2025-05-21 22:28:35.889,WT901BLE68(4F145CEDD531),0.352,0.837,0.495,-59.814,0.122,53.162,57.77,-13.29,-107.31,-70.125,-48.317,4.75,-0.5218135545171154,-0.2569115969172406,0.4554305580073201,0.6740104246410347,25.6,13113,90,0.201,92.32611662953086
2025-05-21 22:28:35.952,WT901BLE68(4F145CEDD531),0.347,0.748,0.55,-28.503,-3.723,-30.396,51.45,-17.48,-105.5,-70.125,-48.317,4.75,-0.5218135545171154,-0.2569115969172406,0.4554305580073201,0.6740104246410347,25.6,13113,90,0.201,92.32611662953086
2025-05-21 22:28:36.950,WT901BLE68(4F145CEDD531),0.378,0.775,0.606,-29.053,2.014,15.686,49.45,-16.51,-106.77,-70.125,-48.317,4.75,-0.5894508838208053,-0.12915676706840112,0.4051712286315349,0.686805984665628,25.6,13113,90,0.201,88.6687767805053
2025-05-21 22:28:36.177,WT901BLE68(4F145CEDD531),0.331,0.762,0.625,-6.165,0.793,-1.221,47.91,-17.53,-106.6,-70.125,-48.317,4.75,-0.5894508838208053,-0.12915676706840112,0.4051712286315349,0.686805984665628,25.6,13113,90,0.201,88.6687767805053
2025-05-21 22:28:36.296,WT901BLE68(4F145CEDD531),0.275,0.693,0.615,26.733,0.549,-15.869,49.23,-16.27,-108.19,-69.925,-46.575,-1.417,-0.5894508838208053,-0.12915676706840112,0.4051712286315349,0.686805984665628,25.6,13113,90,0.201,88.6687767805053
2025-05-21 22:28:36.357,WT901BLE68(4F145CEDD531),0.149,0.789,0.597,8.911,-7.385,-5.676,50.41,-16.14,-109.56,-69.925,-46.575,-1.417,-0.5894508838208053,-0.12915676706840112,0.4051712286315349,0.686805984665628,25.6,13113,90,0.201,88.6687767805053
2025-05-21 22:28:36.469,WT901BLE68(4F145CEDD531),0.438,0.348,0.286,21.79,-14.16,16.418,52.12,-17.69,-109.97,-69.925,-46.575,-1.417,-0.5705800028029,-0.1263444292521705,0.4487157306114366,0.6761137024940632,25.6,13113,90,0.246,86.91515502938033
2025-05-21 22:28:36.559,WT901BLE68(4F145CEDD531),0.444,0.852,0.54,15.564,-4.761,40.771,52.57,-22.29,-108.68,-69.925,-46.575,-1.417,-0.5705800028029,-0.1263444292521705,0.4487157306114366,0.6761137024940632,25.6,13113,90,0.246,86.91515502938033
2025-05-21 22:28:36.673,WT901BLE68(4F145CEDD531),0.453,0.757,0.535,-6.409,-8.85,-0.671,53.27,-23.72,-108.34,-75.325,-42.8,4.217,-0.5705800028029,-0.1263444292521705,0.4487157306114366,0.6761137024940632,25.6,13113,90,0.246,86.91515502938033
2025-05-21 22:28:36.762,WT901BLE68(4F145CEDD531),0.495,0.708,0.542,-12.817,6.958,0.0,52.97,-23.3,-109.26,-75.325,-42.8,4.217,-0.5705800028029,-0.1263444292521705,0.4487157306114366,0.6761137024940632,25.6,13113,90,0.246,86.91515502938033
2025-05-21 22:28:36.875,WT901BLE68(4F145CEDD531),0.439,0.764,0.534,4.517,9.033,20.996,52.23,-24.02,-108.38,-75.325,-42.8,4.217,-0.5985174165880793,-0.0979661243967522,0.4562985257095358,0.6511307057317414,25.6,13113,90,0.246,82.36494101315368
2025-05-21 22:28:36.964,WT901BLE68(4F145CEDD531),0.45,0.684,0.543,8.85,14.16,23.987,51.18,-25.18,-105.94,-75.325,-42.8,4.217,-0.5985174165880793,-0.0979661243967522,0.4562985257095358,0.6511307057317414,25.6,13113,90,0.246,82.36494101315368
2025-05-21 22:28:37.750,WT901BLE68(4F145CEDD531),0.476,0.689,0.562,7.141,7.507,13.367,51.12,-25.44,-104.84,-77.775,-39.283,1.942,-0.5985174165880793,-0.0979661243967522,0.4562985257095358,0.6511307057317414,25.6,13113,90,0.246,82.36494101315368
2025-05-21 22:28:37.169,WT901BLE68(4F145CEDD531),0.476,0.699,0.54,19.897,3.784,-10.498,52.66,-24.73,-105.8,-77.775,-39.283,1.942,-0.5985174165880793,-0.0979661243967522,0.4562985257095358,0.6511307057317414,25.6,13113,90,0.247,82.36494101315368
2025-05-21 22:28:37.280,WT901BLE68(4F145CEDD531),0.435,0.772,0.512,15.564,2.38,2.625,54.87,-24.35,-106.43,-77.775,-39.283,1.942,-0.5960719893299237,-0.12585675434059942,0.47811565898051006,0.6326639531068211,25.6,13113,90,0.291,80.3404875131518
2025-05-21 22:28:37.370,WT901BLE68(4F145CEDD531),0.458,0.722,0.504,16.052,5.92,5.31,56.41,-24.31,-106.31,-77.775,-39.283,1.942,-0.5960719893299237,-0.12585675434059942,0.47811565898051006,0.6326639531068211,25.6,13113,90,0.291,80.3404875131518
2025-05-21 22:28:37.492,WT901BLE68(4F145CEDD531),0.465,0.795,0.483,32.959,-25.818,-21.301,58.25,-24.44,-107.69,-77.075,-41.792,6.133,-0.5960719893299237,-0.12585675434059942,0.47811565898051006,0.6326639531068211,25.6,13113,90,0.291,80.3404875131518
2025-05-21 22:28:37.572,WT901BLE68(4F145CEDD531),0.479,0.749,0.476,-16.907,1.282,8.179,56.95,-25.03,-107.9,-77.075,-41.792,6.133,-0.5960719893299237,-0.12585675434059942,0.47811565898051006,0.6326639531068211,25.6,13113,90,0.291,80.3404875131518
2025-05-21 22:28:37.728,WT901BLE68(4F145CEDD531),0.459,0.752,0.508,-19.165,2.38,1.282,55.15,-25.17,-108.37,-77.075,-41.792,6.133,-0.5892628917458855,-0.10138565919114416,0.4740264594259453,0.6463660791577451,25.6,13113,90,0.291,81.72851706524183
2025-05-21 22:28:37.777,WT901BLE68(4F145CEDD531),0.498,0.754,0.528,-9.888,0.366,10.254,53.76,-25.54,-108.32,-77.075,-41.792,6.133,-0.5892628917458855,-0.10138565919114416,0.4740264594259453,0.6463660791577451,25.6,13113,90,0.291,81.72851706524183
2025-05-21 22:28:37.895,WT901BLE68(4F145CEDD531),0.513,0.745,0.531,-6.714,-1.099,13.062,53.21,-26.43,-108.03,-78.967,-38.367,2.725,-0.5892628917458855,-0.10138565919114416,0.4740264594259453,0.6463660791577451,25.6,13113,90,0.291,81.72851706524183
2025-05-21 22:28:37.998,WT901BLE68(4F145CEDD531),0.504,0.711,0.53,2.686,-2.075,6.287,52.46,-27.76,-107.64,-78.967,-38.367,2.725,-0.5892628917458855,-0.10138565919114416,0.4740264594259453,0.6463660791577451,25.6,13113,90,0.291,81.72851706524183
2025-05-21 22:28:38.960,WT901BLE68(4F145CEDD531),0.51,0.692,0.527,-1.099,-0.977,-7.202,52.95,-28.0,-108.2,-78.967,-38.367,2.725,-0.5919522886222142,-0.07651417354116367,0.4769560160369519,0.6451751917180282,25.6,13113,90,0.315,81.03743530209644
2025-05-21 22:28:38.181,WT901BLE68(4F145CEDD531),0.506,0.742,0.526,-7.629,-5.798,-13.916,52.93,-27.59,-109.48,-78.967,-38.367,2.725,-0.5919522886222142,-0.07651417354116367,0.4769560160369519,0.6451751917180282,25.6,13113,90,0.315,81.03743530209644
2025-05-21 22:28:38.294,WT901BLE68(4F145CEDD531),0.499,0.737,0.53,-3.174,-3.113,-0.854,52.73,-27.66,-110.43,-78.917,-38.433,3.325,-0.5919522886222142,-0.07651417354116367,0.4769560160369519,0.6451751917180282,25.6,13113,90,0.315,81.03743530209644
2025-05-21 22:28:38.395,WT901BLE68(4F145CEDD531),0.484,0.712,0.533,-3.357,-1.282,0.61,52.61,-27.86,-110.93,-78.917,-38.433,3.325,-0.5919522886222142,-0.07651417354116367,0.4769560160369519,0.6451751917180282,25.6,13113,90,0.315,81.03743530209644
2025-05-21 22:28:38.497,WT901BLE68(4F145CEDD531),0.481,0.706,0.53,-2.136,1.831,-0.977,52.34,-27.85,-111.17,-78.917,-38.433,3.325,-0.5791952120269583,-0.06311383698981515,0.4750388798689922,0.659460091710092,25.6,13113,90,0.315,82.97756026407949
2025-05-21 22:28:38.592,WT901BLE68(4F145CEDD531),0.489,0.702,0.542,-1.831,-1.404,-0.366,52.29,-27.86,-111.37,-78.917,-38.433,3.325,-0.5791952120269583,-0.06311383698981515,0.4750388798689922,0.659460091710092,25.6,13113,90,0.315,82.97756026407949
2025-05-21 22:28:38.698,WT901BLE68(4F145CEDD531),0.492,0.706,0.546,0.244,-2.441,-2.93,52.37,-27.95,-111.88,-78.25,-38.733,3.375,-0.5791952120269583,-0.06311383698981515,0.4750388798689922,0.659460091710092,25.6,13113,90,0.315,82.97756026407949
2025-05-21 22:28:38.764,WT901BLE68(4F145CEDD531),0.491,0.708,0.548,-0.488,-1.343,-0.366,52.5,-28.0,-112.32,-78.25,-38.733,3.375,-0.5791952120269583,-0.06311383698981515,0.4750388798689922,0.659460091710092,25.6,13113,90,0.315,82.97756026407949
2025-05-21 22:28:38.897,WT901BLE68(4F145CEDD531),0.491,0.706,0.55,-0.549,-1.526,-0.61,52.6,-28.08,-112.72,-78.25,-38.733,3.375,-0.5697619921793995,-0.055663125488749715,0.4786368754971344,0.6657173800817627,25.6,13113,90,0.361,83.83200735422498
2025-05-21 22:28:38.966,WT901BLE68(4F145CEDD531),0.49,0.711,0.543,-1.709,-1.709,-0.854,52.59,-28.13,-113.09,-78.25,-38.733,3.375,-0.5697619921793995,-0.055663125488749715,0.4786368754971344,0.6657173800817627,25.6,13113,90,0.361,83.83200735422498
2025-05-21 22:28:39.123,WT901BLE68(4F145CEDD531),0.49,0.712,0.538,-0.916,-1.343,-2.258,52.51,-28.16,-113.52,-78.017,-39.742,4.7,-0.5697619921793995,-0.055663125488749715,0.4786368754971344,0.6657173800817627,25.6,13113,90,0.361,83.83200735422498
2025-05-21 22:28:39.167,WT901BLE68(4F145CEDD531),0.494,0.71,0.537,-2.502,-0.854,-0.671,52.48,-28.13,-113.91,-78.017,-39.742,4.7,-0.5697619921793995,-0.055663125488749715,0.4786368754971344,0.6657173800817627,25.6,13113,90,0.361,83.83200735422498
2025-05-21 22:28:39.303,WT901BLE68(4F145CEDD531),0.494,0.705,0.54,-3.052,-0.488,-0.549,52.29,-28.16,-114.11,-78.017,-39.742,4.7,-0.5620811373572011,-0.04730346202582666,0.47668488741247944,0.6742393459448641,25.6,13113,90,0.361,85.04764161905221
2025-05-21 22:28:39.398,WT901BLE68(4F145CEDD531),0.486,0.705,0.543,-3.601,-0.916,-1.16,52.09,-28.17,-114.41,-78.017,-39.742,4.7,-0.5620811373572011,-0.04730346202582666,0.47668488741247944,0.6742393459448641,25.6,13113,90,0.361,85.04764161905221
2025-05-21 22:28:39.507,WT901BLE68(4F145CEDD531),0.485,0.706,0.547,-2.319,-0.305,-0.427,51.82,-28.19,-114.57,-78.05,-39.05,3.325,-0.5620811373572011,-0.04730346202582666,0.47668488741247944,0.6742393459448641,25.6,13113,90,0.361,85.04764161905221
2025-05-21 22:28:39.574,WT901BLE68(4F145CEDD531),0.485,0.697,0.547,2.38,2.319,2.258,51.78,-28.21,-114.5,-78.05,-39.05,3.325,-0.5620811373572011,-0.04730346202582666,0.47668488741247944,0.6742393459448641,25.6,13113,90,0.361,85.04764161905221
2025-05-21 22:28:39.709,WT901BLE68(4F145CEDD531),0.491,0.704,0.548,-1.404,0.732,0.671,51.75,-28.2,-114.45,-78.05,-39.05,3.325,-0.5614922937261406,-0.043852522138516134,0.47411726842985435,0.6767689237582217,25.6,13113,90,0.503,85.40444694411501
2025-05-21 22:28:39.775,WT901BLE68(4F145CEDD531),0.488,0.698,0.552,-0.732,-0.793,-0.671,51.65,-28.23,-114.55,-78.05,-39.05,3.325,-0.5614922937261406,-0.043852522138516134,0.47411726842985435,0.6767689237582217,25.6,13113,90,0.503,85.40444694411501
2025-05-21 22:28:39.913,WT901BLE68(4F145CEDD531),0.505,0.702,0.551,-0.61,0.0,-0.061,51.6,-28.26,-114.65,-77.967,-39.233,3.15,-0.5614922937261406,-0.043852522138516134,0.47411726842985435,0.6767689237582217,25.6,13113,90,0.503,85.40444694411501
2025-05-21 22:28:39.980,WT901BLE68(4F145CEDD531),0.496,0.71,0.55,8.911,-0.854,-0.61,51.98,-28.34,-114.65,-77.967,-39.233,3.15,-0.5614922937261406,-0.043852522138516134,0.47411726842985435,0.6767689237582217,25.6,13113,90,0.503,85.40444694411501
2025-05-21 22:28:40.138,WT901BLE68(4F145CEDD531),0.489,0.707,0.543,1.953,-0.61,1.099,52.27,-28.48,-114.71,-77.967,-39.233,3.15,-0.5602189634634336,-0.04398305904016889,0.47909332114104836,0.6743068983270639,25.6,13113,90,0.503,85.02325551602034
2025-05-21 22:28:40.182,WT901BLE68(4F145CEDD531),0.488,0.709,0.542,-0.549,-0.122,0.366,52.31,-28.53,-114.8,-77.967,-39.233,3.15,-0.5602189634634336,-0.04398305904016889,0.47909332114104836,0.6743068983270639,25.6,13113,90,0.503,85.02325551602034
2025-05-21 22:28:40.338,WT901BLE68(4F145CEDD531),0.489,0.711,0.542,3.235,0.183,0.61,52.44,-28.54,-114.86,-78.0,-38.8,3.617,-0.5602189634634336,-0.04398305904016889,0.47909332114104836,0.6743068983270639,25.6,13113,90,0.603,85.02325551602034
2025-05-21 22:28:40.397,WT901BLE68(4F145CEDD531),0.49,0.708,0.541,2.869,-0.366,0.732,52.83,-28.67,-114.84,-78.0,-38.8,3.617,-0.5602189634634336,-0.04398305904016889,0.47909332114104836,0.6743068983270639,25.6,13113,90,0.603,85.02325551602034
2025-05-21 22:28:40.500,WT901BLE68(4F145CEDD531),0.499,0.716,0.536,1.831,-0.427,0.061,52.97,-28.71,-114.97,-78.0,-38.8,3.617,-0.5588754227307086,-0.045472882169431884,0.48529075877586364,0.6708825219824431,25.6,13113,90,0.873,84.50852095734881
2025-05-21 22:28:40.601,WT901BLE68(4F145CEDD531),0.496,0.709,0.529,2.075,-0.977,-0.305,53.26,-28.78,-115.07,-78.0,-38.8,3.617,-0.5588754227307086,-0.045472882169431884,0.48529075877586364,0.6708825219824431,25.6,13113,90,0.873,84.50852095734881
2025-05-21 22:28:40.698,WT901BLE68(4F145CEDD531),0.494,0.716,0.525,0.916,-0.549,-0.488,53.44,-28.81,-115.27,-78.45,-39.567,4.908,-0.5588754227307086,-0.045472882169431884,0.48529075877586364,0.6708825219824431,25.6,13113,90,0.873,84.50852095734881
2025-05-21 22:28:40.798,WT901BLE68(4F145CEDD531),0.493,0.716,0.524,1.526,-0.244,-0.244,53.6,-28.83,-115.36,-78.45,-39.567,4.908,-0.5588754227307086,-0.045472882169431884,0.48529075877586364,0.6708825219824431,25.6,13113,90,0.873,84.50852095734881
2025-05-21 22:28:40.901,WT901BLE68(4F145CEDD531),0.497,0.724,0.522,4.395,-2.563,-3.174,53.99,-28.85,-115.56,-78.45,-39.567,4.908,-0.554324222622605,-0.04886301668321723,0.4939004922091791,0.6681312487902291,25.6,13113,90,0.883,84.12110784126243
2025-05-21 22:28:41.130,WT901BLE68(4F145CEDD531),0.498,0.721,0.51,7.202,0.061,-0.793,54.72,-28.83,-115.76,-78.45,-39.567,4.908,-0.554324222622605,-0.04886301668321723,0.4939004922091791,0.6681312487902291,25.6,13113,90,0.883,84.12110784126243
2025-05-21 22:28:41.103,WT901BLE68(4F145CEDD531),0.487,0.734,0.5,8.545,-0.977,0.977,55.52,-28.91,-115.81,-78.317,-39.858,6.85,-0.554324222622605,-0.04886301668321723,0.4939004922091791,0.6681312487902291,25.6,13113,90,0.883,84.12110784126243
2025-05-21 22:28:41.217,WT901BLE68(4F145CEDD531),0.491,0.744,0.492,11.414,-4.028,-3.845,56.52,-28.97,-116.13,-78.317,-39.858,6.85,-0.554324222622605,-0.04886301668321723,0.4939004922091791,0.6681312487902291,25.6,13113,90,0.883,84.12110784126243
2025-05-21 22:28:41.306,WT901BLE68(4F145CEDD531),0.486,0.761,0.461,22.644,-1.953,-2.38,58.35,-28.8,-116.83,-78.317,-39.858,6.85,-0.5425122887696127,-0.06998416525604169,0.5277114078637909,0.6498486771224414,25.6,13113,90,1.303,81.62810045360928
2025-05-21 22:28:41.400,WT901BLE68(4F145CEDD531),0.495,0.771,0.431,20.447,-3.601,-1.343,60.58,-28.8,-117.32,-78.317,-39.858,6.85,-0.5425122887696127,-0.06998416525604169,0.5277114078637909,0.6498486771224414,25.6,13113,90,1.303,81.62810045360928
2025-05-21 22:28:41.509,WT901BLE68(4F145CEDD531),0.523,0.786,0.403,21.545,-7.813,5.31,63.03,-29.1,-117.97,-77.8,-41.725,14.1,-0.5425122887696127,-0.06998416525604169,0.5277114078637909,0.6498486771224414,25.6,13113,90,1.303,81.62810045360928
2025-05-21 22:28:41.620,WT901BLE68(4F145CEDD531),0.527,0.812,0.357,19.592,-10.498,3.479,65.49,-29.76,-118.75,-77.8,-41.725,14.1,-0.5425122887696127,-0.06998416525604169,0.5277114078637909,0.6498486771224414,25.6,13113,90,1.303,81.62810045360928
2025-05-21 22:28:41.713,WT901BLE68(4F145CEDD531),0.531,0.801,0.313,16.479,-5.92,5.615,67.71,-30.53,-119.54,-77.8,-41.725,14.1,-0.5273743600598954,-0.08344543672658562,0.5856381561252222,0.6098697348870291,25.6,13113,90,1.303,75.98407752178467
2025-05-21 22:28:41.803,WT901BLE68(4F145CEDD531),0.51,0.814,0.293,19.836,-3.174,7.019,69.68,-31.13,-120.14,-77.8,-41.725,14.1,-0.5273743600598954,-0.08344543672658562,0.5856381561252222,0.6098697348870291,25.6,13113,90,1.303,75.98407752178467
2025-05-21 22:28:41.913,WT901BLE68(4F145CEDD531),0.533,0.811,0.253,15.015,-5.066,1.221,71.59,-31.5,-120.58,-78.608,-39.592,21.183,-0.5273743600598954,-0.08344543672658562,0.5856381561252222,0.6098697348870291,25.6,13113,90,1.303,75.98407752178467
2025-05-21 22:28:42.500,WT901BLE68(4F145CEDD531),0.525,0.824,0.232,11.536,-11.841,1.282,73.44,-31.79,-121.75,-78.608,-39.592,21.183,-0.5273743600598954,-0.08344543672658562,0.5856381561252222,0.6098697348870291,25.6,13113,90,1.303,75.98407752178467
2025-05-21 22:28:42.117,WT901BLE68(4F145CEDD531),0.546,0.808,0.207,18.738,-20.63,3.113,76.0,-32.54,-123.64,-78.608,-39.592,21.183,-0.4980509094009063,-0.08078501357657365,0.6405997560857888,0.5788359229774799,25.6,13113,90,0.518,71.52773834006784
2025-05-21 22:28:42.206,WT901BLE68(4F145CEDD531),0.558,0.832,0.163,15.625,-19.531,3.235,78.7,-33.02,-125.93,-78.608,-39.592,21.183,-0.4980509094009063,-0.08078501357657365,0.6405997560857888,0.5788359229774799,25.6,13113,90,0.518,71.52773834006784
2025-05-21 22:28:42.342,WT901BLE68(4F145CEDD531),0.573,0.838,0.112,8.118,-21.118,-2.808,81.09,-33.3,-128.36,-77.725,-39.55,32.233,-0.4980509094009063,-0.08078501357657365,0.6405997560857888,0.5788359229774799,25.6,13113,90,0.518,71.52773834006784
2025-05-21 22:28:42.409,WT901BLE68(4F145CEDD531),0.54,0.846,0.095,2.319,-12.939,-3.296,82.34,-33.17,-130.35,-77.725,-39.55,32.233,-0.4980509094009063,-0.08078501357657365,0.6405997560857888,0.5788359229774799,25.6,13113,90,0.518,71.52773834006784
2025-05-21 22:28:42.543,WT901BLE68(4F145CEDD531),0.534,0.852,0.065,8.301,-10.742,-6.531,83.37,-32.79,-131.65,-77.725,-39.55,32.233,-0.4579966679470379,-0.06796247336931896,0.6718344501801379,0.57815104074462,25.6,13113,90,0.518,71.20125543943928
2025-05-21 22:28:42.610,WT901BLE68(4F145CEDD531),0.553,0.824,0.065,-4.639,-9.094,-2.319,84.02,-32.46,-132.66,-77.725,-39.55,32.233,-0.4579966679470379,-0.06796247336931896,0.6718344501801379,0.57815104074462,25.6,13113,90,0.518,71.20125543943928
2025-05-21 22:28:42.723,WT901BLE68(4F145CEDD531),0.549,0.844,0.059,-0.854,-4.822,1.648,84.14,-32.59,-133.26,-76.333,-40.308,34.708,-0.4579966679470379,-0.06796247336931896,0.6718344501801379,0.57815104074462,25.6,13113,90,0.518,71.20125543943928
2025-05-21 22:28:42.814,WT901BLE68(4F145CEDD531),0.546,0.839,0.055,16.541,-6.714,-2.441,85.29,-32.61,-133.78,-76.333,-40.308,34.708,-0.4579966679470379,-0.06796247336931896,0.6718344501801379,0.57815104074462,25.6,13113,90,0.519,71.20125543943928
2025-05-21 22:28:42.926,WT901BLE68(4F145CEDD531),0.529,0.853,0.018,16.724,-4.211,-1.526,87.6,-32.23,-134.49,-76.333,-40.308,34.708,-0.44402869277349566,-0.0763249320551198,0.6980151051691819,0.5565859661330833,25.6,13113,90,0.562,68.36002682956774
2025-05-21 22:28:43.200,WT901BLE68(4F145CEDD531),0.511,0.833,-0.002,7.874,-4.578,0.854,89.11,-32.34,-134.69,-76.333,-40.308,34.708,-0.44402869277349566,-0.0763249320551198,0.6980151051691819,0.5565859661330833,25.6,13113,90,0.562,68.36002682956774
2025-05-21 22:28:43.130,WT901BLE68(4F145CEDD531),0.537,0.828,-0.039,30.579,-1.648,10.193,90.38,-32.87,-134.68,-76.333,-40.308,34.708,-0.44402869277349566,-0.0763249320551198,0.6980151051691819,0.5565859661330833,25.6,13113,90,0.562,68.36002682956774
2025-05-21 22:28:43.202,WT901BLE68(4F145CEDD531),0.591,0.841,-0.075,7.202,-0.793,10.864,93.17,-33.28,-134.94,-75.375,-37.267,41.458,-0.44402869277349566,-0.0763249320551198,0.6980151051691819,0.5565859661330833,25.6,13113,90,0.562,68.36002682956774
2025-05-21 22:28:43.332,WT901BLE68(4F145CEDD531),0.529,0.801,-0.08,2.319,-6.531,0.366,93.69,-33.75,-135.31,-75.375,-37.267,41.458,-0.44402869277349566,-0.0763249320551198,0.6980151051691819,0.5565859661330833,25.6,13113,90,0.562,68.36002682956774
2025-05-21 22:28:43.397,WT901BLE68(4F145CEDD531),0.566,0.799,-0.086,-1.587,3.418,3.784,94.14,-34.08,-135.42,-75.375,-37.267,41.458,-0.44552537940782044,-0.08078460190474464,0.7234312103475269,0.5211796890648387,25.6,13113,90,0.562,63.66037009757092
2025-05-21 22:28:43.534,WT901BLE68(4F145CEDD531),0.542,0.84,-0.101,-8.911,8.057,1.404,93.2,-34.38,-134.96,-75.375,-37.267,41.458,-0.44552537940782044,-0.08078460190474464,0.7234312103475269,0.5211796890648387,25.6,13113,90,0.562,63.66037009757092
2025-05-21 22:28:43.600,WT901BLE68(4F145CEDD531),0.566,0.822,-0.077,-0.061,5.493,-6.409,92.61,-34.02,-133.84,-76.375,-36.75,40.75,-0.44552537940782044,-0.08078460190474464,0.7234312103475269,0.5211796890648387,25.6,13113,90,0.562,63.66037009757092
2025-05-21 22:28:43.738,WT901BLE68(4F145CEDD531),0.551,0.813,-0.062,-2.319,5.066,1.587,92.36,-33.84,-133.26,-76.375,-36.75,40.75,-0.44552537940782044,-0.08078460190474464,0.7234312103475269,0.5211796890648387,25.6,13113,90,0.607,63.66037009757092
2025-05-21 22:28:43.804,WT901BLE68(4F145CEDD531),0.556,0.832,-0.046,0.122,-2.197,0.549,91.92,-33.91,-133.04,-76.375,-36.75,40.75,-0.45691632711454794,-0.08786698586124185,0.7117565881794427,0.5262218372463947,25.6,13113,90,0.607,64.48547213863827
2025-05-21 22:28:43.960,WT901BLE68(4F145CEDD531),0.544,0.825,-0.062,5.249,-0.366,-2.38,92.32,-33.79,-133.16,-76.375,-36.75,40.75,-0.45691632711454794,-0.08786698586124185,0.7117565881794427,0.5262218372463947,25.6,13113,90,0.607,64.48547213863827
2025-05-21 22:28:44.600,WT901BLE68(4F145CEDD531),0.565,0.811,-0.077,19.714,-1.038,5.615,93.61,-33.78,-132.68,-76.917,-36.667,40.642,-0.45691632711454794,-0.08786698586124185,0.7117565881794427,0.5262218372463947,25.6,13113,90,0.607,64.48547213863827
2025-05-21 22:28:44.142,WT901BLE68(4F145CEDD531),0.573,0.801,-0.082,3.662,-4.944,9.644,94.94,-34.63,-133.18,-76.917,-36.667,40.642,-0.45691632711454794,-0.08786698586124185,0.7117565881794427,0.5262218372463947,25.6,13113,90,0.607,64.48547213863827
2025-05-21 22:28:44.231,WT901BLE68(4F145CEDD531),0.553,0.791,-0.089,-4.272,-1.77,-0.305,94.89,-34.88,-133.36,-76.917,-36.667,40.642,-0.45800545012343746,-0.09311517415824547,0.7259003363173027,0.5046080397032274,25.6,13113,90,0.607,61.744736978440244
2025-05-21 22:28:44.367,WT901BLE68(4F145CEDD531),0.562,0.857,-0.115,16.968,-3.113,0.793,96.05,-34.67,-133.38,-76.917,-36.667,40.642,-0.45800545012343746,-0.09311517415824547,0.7259003363173027,0.5046080397032274,25.6,13113,90,0.607,61.744736978440244
2025-05-21 22:28:44.412,WT901BLE68(4F145CEDD531),0.59,0.798,-0.092,-9.766,-0.183,-1.099,95.5,-34.88,-133.24,-77.05,-35.525,41.633,-0.45800545012343746,-0.09311517415824547,0.7259003363173027,0.5046080397032274,25.6,13113,90,0.607,61.744736978440244
2025-05-21 22:28:44.548,WT901BLE68(4F145CEDD531),0.578,0.803,-0.055,-13.062,5.432,1.404,93.9,-34.89,-132.84,-77.05,-35.525,41.633,-0.45800545012343746,-0.09311517415824547,0.7259003363173027,0.5046080397032274,25.6,13113,90,0.654,61.744736978440244
2025-05-21 22:28:44.616,WT901BLE68(4F145CEDD531),0.551,0.818,-0.04,-5.249,4.944,-1.953,92.89,-34.87,-132.19,-77.05,-35.525,41.633,-0.46550022286288056,-0.09238401346582648,0.7151210672145254,0.5132022951980172,25.6,13113,90,0.654,62.859297264201366
2025-05-21 22:28:44.792,WT901BLE68(4F145CEDD531),0.567,0.83,-0.025,-6.104,4.089,1.221,92.57,-34.76,-131.69,-77.05,-35.525,41.633,-0.46550022286288056,-0.09238401346582648,0.7151210672145254,0.5132022951980172,25.6,13113,90,0.654,62.859297264201366
2025-05-21 22:28:44.839,WT901BLE68(4F145CEDD531),0.561,0.817,-0.002,-2.808,3.052,-1.343,91.61,-34.75,-131.16,-77.617,-36.767,38.083,-0.46550022286288056,-0.09238401346582648,0.7151210672145254,0.5132022951980172,25.6,13113,90,0.654,62.859297264201366
2025-05-21 22:28:44.929,WT901BLE68(4F145CEDD531),0.57,0.816,0.009,-8.057,6.409,-2.502,90.85,-34.58,-130.63,-77.617,-36.767,38.083,-0.46550022286288056,-0.09238401346582648,0.7151210672145254,0.5132022951980172,25.6,13113,90,0.655,62.859297264201366
2025-05-21 22:28:45.650,WT901BLE68(4F145CEDD531),0.567,0.816,0.017,-1.526,8.972,0.61,89.51,-34.5,-129.67,-77.617,-36.767,38.083,-0.48018448998548013,-0.09576488412406194,0.6956254777345054,0.5256968111685008,25.6,13113,90,0.655,64.59944399900809
2025-05-21 22:28:45.154,WT901BLE68(4F145CEDD531),0.566,0.822,0.028,-0.244,5.371,0.0,88.46,-34.62,-128.56,-77.617,-36.767,38.083,-0.48018448998548013,-0.09576488412406194,0.6956254777345054,0.5256968111685008,25.6,13113,90,0.655,64.59944399900809
2025-05-21 22:28:45.223,WT901BLE68(4F145CEDD531),0.565,0.809,0.033,-5.432,2.38,-2.319,88.07,-34.5,-128.34,-78.65,-37.65,34.65,-0.48018448998548013,-0.09576488412406194,0.6956254777345054,0.5256968111685008,25.6,13113,90,0.655,64.59944399900809
2025-05-21 22:28:45.335,WT901BLE68(4F145CEDD531),0.553,0.834,0.036,-15.808,2.441,-2.563,86.86,-34.28,-128.17,-78.65,-37.65,34.65,-0.48018448998548013,-0.09576488412406194,0.6956254777345054,0.5256968111685008,25.6,13113,90,0.677,64.59944399900809
2025-05-21 22:28:45.424,WT901BLE68(4F145CEDD531),0.554,0.828,0.069,-10.315,0.916,-2.197,85.63,-33.95,-128.1,-78.65,-37.65,34.65,-0.4854761171255149,-0.09137679800131489,0.6769903648791736,0.5455705878697308,25.6,13113,90,0.678,67.1695145367751
2025-05-21 22:28:45.537,WT901BLE68(4F145CEDD531),0.556,0.838,0.088,-2.93,-1.099,-1.953,85.12,-33.77,-128.11,-78.65,-37.65,34.65,-0.4854761171255149,-0.09137679800131489,0.6769903648791736,0.5455705878697308,25.6,13113,90,0.678,67.1695145367751
2025-05-21 22:28:45.626,WT901BLE68(4F145CEDD531),0.567,0.834,0.082,2.625,-6.104,1.526,85.13,-33.73,-128.42,-77.767,-38.6,32.858,-0.4854761171255149,-0.09137679800131489,0.6769903648791736,0.5455705878697308,25.6,13113,90,0.678,67.1695145367751
2025-05-21 22:28:45.762,WT901BLE68(4F145CEDD531),0.566,0.84,0.067,5.005,-4.517,6.104,86.05,-34.16,-129.32,-77.767,-38.6,32.858,-0.4854761171255149,-0.09137679800131489,0.6769903648791736,0.5455705878697308,25.6,13113,90,0.678,67.1695145367751
2025-05-21 22:28:45.830,WT901BLE68(4F145CEDD531),0.56,0.816,0.055,-2.991,0.183,-1.709,86.03,-34.37,-129.46,-77.767,-38.6,32.858,-0.4803140331139103,-0.08273413970624789,0.6809440718890518,0.5465973496826292,25.6,13113,90,0.678,67.12183910552105
2025-05-21 22:28:45.941,WT901BLE68(4F145CEDD531),0.555,0.821,0.06,-3.235,-0.549,-2.014,85.69,-34.18,-129.46,-77.767,-38.6,32.858,-0.4803140331139103,-0.08273413970624789,0.6809440718890518,0.5465973496826292,25.6,13113,90,0.679,67.12183910552105
2025-05-21 22:28:46.310,WT901BLE68(4F145CEDD531),0.553,0.835,0.069,-2.441,-2.563,-5.005,85.57,-33.9,-129.68,-77.742,-38.967,33.867,-0.4803140331139103,-0.08273413970624789,0.6809440718890518,0.5465973496826292,25.6,13113,90,0.679,67.12183910552105
2025-05-21 22:28:46.145,WT901BLE68(4F145CEDD531),0.549,0.832,0.081,-13.306,-1.465,-2.808,85.03,-33.57,-129.96,-77.742,-38.967,33.867,-0.4803140331139103,-0.08273413970624789,0.6809440718890518,0.5465973496826292,25.6,13113,90,0.721,67.12183910552105
2025-05-21 22:28:46.233,WT901BLE68(4F145CEDD531),0.541,0.832,0.096,-7.324,-1.709,-3.601,84.31,-33.26,-130.24,-77.742,-38.967,33.867,-0.4720474499324885,-0.07767451683457562,0.6717290615761052,0.5656128908368646,25.6,13113,90,0.722,69.62900900516998
2025-05-21 22:28:46.348,WT901BLE68(4F145CEDD531),0.537,0.835,0.087,-1.953,-2.075,-6.775,83.96,-32.81,-130.5,-77.742,-38.967,33.867,-0.4720474499324885,-0.07767451683457562,0.6717290615761052,0.5656128908368646,25.6,13113,90,0.722,69.62900900516998
2025-05-21 22:28:46.460,WT901BLE68(4F145CEDD531),0.532,0.844,0.09,-0.549,-1.953,-1.77,84.03,-32.55,-130.77,-76.442,-40.992,32.717,-0.4720474499324885,-0.07767451683457562,0.6717290615761052,0.5656128908368646,25.6,13113,90,0.722,69.62900900516998
2025-05-21 22:28:46.547,WT901BLE68(4F145CEDD531),0.533,0.844,0.085,0.122,-1.709,-1.77,84.16,-32.38,-130.93,-76.442,-40.992,32.717,-0.4720474499324885,-0.07767451683457562,0.6717290615761052,0.5656128908368646,25.6,13113,90,0.722,69.62900900516998
2025-05-21 22:28:46.639,WT901BLE68(4F145CEDD531),0.523,0.848,0.082,2.014,-3.357,-2.991,84.46,-32.22,-131.2,-76.442,-40.992,32.717,-0.46225188305105336,-0.08005552169580897,0.6737864732958693,0.57089937683035,25.6,13113,90,0.722,70.4073918602198
2025-05-21 22:28:46.752,WT901BLE68(4F145CEDD531),0.498,0.854,0.076,0.183,-2.991,-4.761,84.87,-31.87,-131.61,-76.442,-40.992,32.717,-0.46225188305105336,-0.08005552169580897,0.6737864732958693,0.57089937683035,25.6,13113,90,0.722,70.4073918602198
2025-05-21 22:28:46.842,WT901BLE68(4F145CEDD531),0.461,0.872,0.065,5.432,-7.446,-29.602,85.44,-30.31,-132.29,-73.283,-42.975,34.292,-0.46225188305105336,-0.08005552169580897,0.6737864732958693,0.57089937683035,25.6,13113,90,0.722,70.4073918602198
2025-05-21 22:28:46.952,WT901BLE68(4F145CEDD531),0.457,0.905,0.073,-6.775,-2.136,-3.906,85.97,-28.0,-133.17,-73.283,-42.975,34.292,-0.46225188305105336,-0.08005552169580897,0.6737864732958693,0.57089937683035,25.6,13113,90,0.767,70.4073918602198
2025-05-21 22:28:47.230,WT901BLE68(4F145CEDD531),0.42,0.888,0.076,-12.939,1.282,-11.169,85.17,-27.27,-133.11,-73.283,-42.975,34.292,-0.4318463762115889,-0.10065614785256918,0.6665707126495075,0.5992165988107542,25.6,13113,90,0.767,74.83405134788683
2025-05-21 22:28:47.154,WT901BLE68(4F145CEDD531),0.319,0.879,0.117,-27.222,0.732,-25.696,82.41,-26.26,-132.88,-73.283,-42.975,34.292,-0.4318463762115889,-0.10065614785256918,0.6665707126495075,0.5992165988107542,25.6,13113,90,0.767,74.83405134788683
2025-05-21 22:28:47.223,WT901BLE68(4F145CEDD531),0.304,0.925,0.151,15.564,3.113,-101.563,81.94,-18.62,-133.82,-63.908,-52.742,30.817,-0.4318463762115889,-0.10065614785256918,0.6665707126495075,0.5992165988107542,25.6,13113,90,0.767,74.83405134788683
2025-05-21 22:28:47.357,WT901BLE68(4F145CEDD531),0.28,0.914,0.139,-1.648,1.038,8.911,80.94,-17.5,-133.6,-63.908,-52.742,30.817,-0.4318463762115889,-0.10065614785256918,0.6665707126495075,0.5992165988107542,25.6,13113,90,0.767,74.83405134788683
2025-05-21 22:28:47.428,WT901BLE68(4F145CEDD531),0.327,0.969,0.151,2.93,-0.916,-0.183,81.4,-17.68,-133.41,-63.908,-52.742,30.817,-0.39027838906300016,-0.14651690355563,0.637730048443282,0.6477005182299834,25.6,13113,90,0.767,83.22136628456845
2025-05-21 22:28:47.562,WT901BLE68(4F145CEDD531),0.313,0.951,0.166,-23.499,-0.244,18.555,80.67,-18.41,-133.15,-63.908,-52.742,30.817,-0.39027838906300016,-0.14651690355563,0.637730048443282,0.6477005182299834,25.6,13113,90,0.768,83.22136628456845
2025-05-21 22:28:47.630,WT901BLE68(4F145CEDD531),0.326,0.95,0.208,-26.306,2.93,-25.024,77.53,-18.38,-132.6,-63.533,-54.058,26.758,-0.39027838906300016,-0.14651690355563,0.637730048443282,0.6477005182299834,25.6,13113,90,0.768,83.22136628456845
2025-05-21 22:28:47.762,WT901BLE68(4F145CEDD531),0.278,0.923,0.208,7.08,2.258,-3.723,77.62,-17.8,-132.41,-63.533,-54.058,26.758,-0.39027838906300016,-0.14651690355563,0.637730048443282,0.6477005182299834,25.6,13113,90,0.809,83.22136628456845
2025-05-21 22:28:47.831,WT901BLE68(4F145CEDD531),0.204,0.933,0.207,4.761,0.61,-7.996,78.61,-17.09,-132.15,-63.533,-54.058,26.758,-0.3888158886319967,-0.15705045693245392,0.6140508855138564,0.6686545212022925,25.6,13113,90,0.809,86.76263775471922
2025-05-21 22:28:47.967,WT901BLE68(4F145CEDD531),0.164,0.904,0.198,-1.404,0.122,-38.086,78.13,-14.6,-132.38,-63.533,-54.058,26.758,-0.3888158886319967,-0.15705045693245392,0.6140508855138564,0.6686545212022925,25.6,13113,90,0.809,86.76263775471922
2025-05-21 22:28:48.350,WT901BLE68(4F145CEDD531),0.18,0.954,0.196,-0.305,0.916,2.197,78.51,-10.74,-133.02,-56.65,-57.667,27.75,-0.3888158886319967,-0.15705045693245392,0.6140508855138564,0.6686545212022925,25.6,13113,90,0.809,86.76263775471922
2025-05-21 22:28:48.169,WT901BLE68(4F145CEDD531),0.221,0.984,0.186,19.287,-10.559,14.526,80.06,-11.56,-133.14,-56.65,-57.667,27.75,-0.3888158886319967,-0.15705045693245392,0.6140508855138564,0.6686545212022925,25.6,13113,90,0.809,86.76263775471922
2025-05-21 22:28:48.238,WT901BLE68(4F145CEDD531),0.203,0.944,0.148,2.014,-4.211,1.526,80.91,-12.8,-133.58,-56.65,-57.667,27.75,-0.3655365447107186,-0.17485269753829455,0.6251954007439078,0.6670384393220492,25.6,13113,90,0.81,87.19295911967171
2025-05-21 22:28:48.370,WT901BLE68(4F145CEDD531),0.219,0.979,0.156,4.395,0.732,3.967,80.75,-13.01,-133.47,-56.65,-57.667,27.75,-0.3655365447107186,-0.17485269753829455,0.6251954007439078,0.6670384393220492,25.6,13113,90,0.81,87.19295911967171
2025-05-21 22:28:48.440,WT901BLE68(4F145CEDD531),0.233,0.979,0.16,1.16,2.258,10.498,81.01,-13.41,-132.98,-59.158,-55.75,29.783,-0.3655365447107186,-0.17485269753829455,0.6251954007439078,0.6670384393220492,25.6,13113,90,0.81,87.19295911967171
2025-05-21 22:28:48.575,WT901BLE68(4F145CEDD531),0.253,0.938,0.166,2.38,-1.587,9.399,80.67,-14.79,-132.45,-59.158,-55.75,29.783,-0.3655365447107186,-0.17485269753829455,0.6251954007439078,0.6670384393220492,25.6,13113,90,0.856,87.19295911967171
2025-05-21 22:28:48.642,WT901BLE68(4F145CEDD531),0.237,0.963,0.164,-3.174,-2.197,-3.54,80.77,-14.92,-132.48,-59.158,-55.75,29.783,-0.3798998053959293,-0.16913881774932488,0.625922631355318,0.659764395635086,25.6,13113,90,0.857,85.85929725050092
2025-05-21 22:28:48.754,WT901BLE68(4F145CEDD531),0.24,0.969,0.164,-0.854,-0.305,-0.366,80.51,-14.56,-132.49,-59.158,-55.75,29.783,-0.3798998053959293,-0.16913881774932488,0.625922631355318,0.659764395635086,25.6,13113,90,0.857,85.85929725050092
2025-05-21 22:28:48.843,WT901BLE68(4F145CEDD531),0.245,0.978,0.157,1.099,-1.526,0.061,80.6,-14.53,-132.48,-59.767,-56.008,29.75,-0.3798998053959293,-0.16913881774932488,0.625922631355318,0.659764395635086,25.6,13113,90,0.857,85.85929725050092
2025-05-21 22:28:48.954,WT901BLE68(4F145CEDD531),0.247,0.958,0.142,-0.305,1.465,0.977,80.55,-14.58,-132.34,-59.767,-56.008,29.75,-0.3798998053959293,-0.16913881774932488,0.625922631355318,0.659764395635086,25.6,13113,90,0.857,85.85929725050092
2025-05-21 22:28:49.470,WT901BLE68(4F145CEDD531),0.225,0.96,0.143,-1.709,7.507,2.136,80.34,-14.59,-131.72,-59.767,-56.008,29.75,-0.38936449401648215,-0.17552104162128931,0.6214390932908049,0.6568113184753813,25.6,13113,90,0.857,85.66530722746057
2025-05-21 22:28:49.159,WT901BLE68(4F145CEDD531),0.252,0.955,0.159,0.244,4.028,3.723,80.08,-14.71,-130.87,-59.767,-56.008,29.75,-0.38936449401648215,-0.17552104162128931,0.6214390932908049,0.6568113184753813,25.6,13113,90,0.857,85.66530722746057
2025-05-21 22:28:49.249,WT901BLE68(4F145CEDD531),0.248,0.965,0.174,0.061,-2.991,3.662,80.13,-14.99,-130.63,-61.067,-55.458,29.925,-0.38936449401648215,-0.17552104162128931,0.6214390932908049,0.6568113184753813,25.6,13113,90,0.857,85.66530722746057
2025-05-21 22:28:49.384,WT901BLE68(4F145CEDD531),0.27,0.97,0.185,-2.869,-8.484,3.357,80.18,-15.34,-131.14,-61.067,-55.458,29.925,-0.38936449401648215,-0.17552104162128931,0.6214390932908049,0.6568113184753813,25.6,13113,90,0.877,85.66530722746057
2025-05-21 22:28:49.452,WT901BLE68(4F145CEDD531),0.245,0.936,0.182,-1.16,-1.343,1.831,80.09,-15.6,-131.65,-61.067,-55.458,29.925,-0.3937682067647358,-0.16459179018982126,0.6223245789240611,0.6561770038719614,25.6,13113,90,0.877,85.14222866507228
2025-05-21 22:28:49.587,WT901BLE68(4F145CEDD531),0.28,0.968,0.17,0.244,-7.507,3.54,79.75,-16.03,-131.48,-61.067,-55.458,29.925,-0.3937682067647358,-0.16459179018982126,0.6223245789240611,0.6561770038719614,25.6,13113,90,0.877,85.14222866507228
2025-05-21 22:28:49.656,WT901BLE68(4F145CEDD531),0.284,0.949,0.164,-2.869,-5.859,4.211,79.56,-16.48,-131.92,-61.067,-55.458,29.925,-0.3937682067647358,-0.16459179018982126,0.6223245789240611,0.6561770038719614,25.6,13113,90,0.878,85.14222866507228
2025-05-21 22:28:49.795,WT901BLE68(4F145CEDD531),0.285,0.936,0.175,0.549,-4.517,2.319,79.84,-16.8,-132.35,-61.9,-54.308,29.742,-0.3937682067647358,-0.16459179018982126,0.6223245789240611,0.6561770038719614,25.6,13113,90,0.878,85.14222866507228
2025-05-21 22:28:49.857,WT901BLE68(4F145CEDD531),0.287,0.951,0.199,-2.136,-3.784,1.16,79.92,-16.95,-132.56,-61.9,-54.308,29.742,-0.3903182531164091,-0.15006086212846134,0.6270553892913465,0.6572175725755478,25.6,13113,90,0.878,84.77347579576556
2025-05-21 22:28:49.970,WT901BLE68(4F145CEDD531),0.293,0.95,0.203,-1.648,-5.371,-0.427,79.83,-16.99,-132.92,-61.9,-54.308,29.742,-0.3903182531164091,-0.15006086212846134,0.6270553892913465,0.6572175725755478,25.6,13113,90,0.878,84.77347579576556
2025-05-21 22:28:50.600,WT901BLE68(4F145CEDD531),0.28,0.935,0.204,-0.183,-4.578,-0.183,79.78,-17.05,-133.34,-62.058,-54.125,30.258,-0.3903182531164091,-0.15006086212846134,0.6270553892913465,0.6572175725755478,25.6,13113,90,0.878,84.77347579576556
2025-05-21 22:28:50.171,WT901BLE68(4F145CEDD531),0.273,0.942,0.207,0.488,-8.118,-0.488,79.89,-17.06,-133.84,-62.058,-54.125,30.258,-0.3903182531164091,-0.15006086212846134,0.6270553892913465,0.6572175725755478,25.6,13113,90,0.924,84.77347579576556
2025-05-21 22:28:50.262,WT901BLE68(4F145CEDD531),0.32,0.936,0.188,-3.967,-14.221,-6.836,79.98,-16.78,-134.98,-62.058,-54.125,30.258,-0.3903182531164091,-0.15006086212846134,0.6270553892913465,0.6572175725755478,25.6,13113,90,0.924,84.77347579576556
2025-05-21 22:28:50.375,WT901BLE68(4F145CEDD531),0.303,0.956,0.157,-5.737,-14.954,-4.639,79.83,-16.38,-136.42,-62.058,-54.125,30.258,-0.36623453934197436,-0.13385896914590883,0.6303522364016272,0.6712749784072348,25.6,13113,90,0.924,86.39122555890002
2025-05-21 22:28:50.463,WT901BLE68(4F145CEDD531),0.304,0.982,0.147,-4.944,-17.944,0.793,79.91,-16.63,-137.92,-59.7,-55.208,31.833,-0.36623453934197436,-0.13385896914590883,0.6303522364016272,0.6712749784072348,25.6,13113,90,0.924,86.39122555890002
2025-05-21 22:28:50.577,WT901BLE68(4F145CEDD531),0.303,0.95,0.141,-2.808,-23.926,-2.563,80.22,-17.07,-139.93,-59.7,-55.208,31.833,-0.36623453934197436,-0.13385896914590883,0.6303522364016272,0.6712749784072348,25.6,13113,90,0.924,86.39122555890002
2025-05-21 22:28:50.666,WT901BLE68(4F145CEDD531),0.324,0.933,0.136,-2.93,-17.517,-4.211,80.6,-17.14,-141.83,-59.7,-55.208,31.833,-0.33062221872498926,-0.09634647474883684,0.6435932512415814,0.6835159341559842,25.6,13113,90,0.924,87.30343018198056
2025-05-21 22:28:50.792,WT901BLE68(4F145CEDD531),0.335,0.939,0.118,-4.639,-15.503,-2.075,80.79,-17.09,-143.11,-59.7,-55.208,31.833,-0.33062221872498926,-0.09634647474883684,0.6435932512415814,0.6835159341559842,25.6,13113,90,0.925,87.30343018198056
2025-05-21 22:28:50.869,WT901BLE68(4F145CEDD531),0.334,0.951,0.134,-0.061,-8.911,-2.258,81.17,-17.12,-144.07,-56.558,-55.975,34.558,-0.33062221872498926,-0.09634647474883684,0.6435932512415814,0.6835159341559842,25.6,13113,90,0.925,87.30343018198056
2025-05-21 22:28:50.991,WT901BLE68(4F145CEDD531),0.343,0.95,0.16,-1.953,-6.653,-3.418,81.51,-16.99,-144.51,-56.558,-55.975,34.558,-0.33062221872498926,-0.09634647474883684,0.6435932512415814,0.6835159341559842,25.6,13113,90,0.97,87.30343018198056
2025-05-21 22:28:51.950,WT901BLE68(4F145CEDD531),0.274,0.939,0.167,2.869,-4.211,-5.432,81.5,-16.77,-144.89,-56.558,-55.975,34.558,-0.31471710247528845,-0.09155497531494332,0.6525954635884151,0.6831471238382405,25.6,13113,90,0.971,87.14231205711654
2025-05-21 22:28:51.193,WT901BLE68(4F145CEDD531),0.285,0.972,0.174,7.507,-9.583,-0.549,82.22,-16.61,-145.08,-56.558,-55.975,34.558,-0.31471710247528845,-0.09155497531494332,0.6525954635884151,0.6831471238382405,25.6,13113,90,0.971,87.14231205711654
2025-05-21 22:28:51.250,WT901BLE68(4F145CEDD531),0.242,0.938,0.141,-1.16,-12.024,6.042,82.61,-17.06,-145.95,-56.558,-55.975,34.558,-0.31471710247528845,-0.09155497531494332,0.6525954635884151,0.6831471238382405,25.6,13113,100,0.971,87.14231205711654
2025-05-21 22:28:51.391,WT901BLE68(4F145CEDD531),0.257,0.929,0.147,2.075,-16.968,2.014,83.22,-17.74,-147.07,-56.558,-55.975,34.558,-0.31471710247528845,-0.09155497531494332,0.6525954635884151,0.6831471238382405,25.6,13113,100,0.971,87.14231205711654
2025-05-21 22:28:51.454,WT901BLE68(4F145CEDD531),0.28,0.99,0.134,9.033,-15.808,-3.601,84.09,-17.42,-148.07,-56.558,-55.975,34.558,-0.31471710247528845,-0.09155497531494332,0.6525954635884151,0.6831471238382405,25.6,13113,100,0.971,87.14231205711654
2025-05-21 22:28:51.594,WT901BLE68(4F145CEDD531),0.3,0.922,0.09,-6.104,-6.653,-3.723,84.13,-17.2,-148.95,-56.558,-55.975,34.558,-0.31471710247528845,-0.09155497531494332,0.6525954635884151,0.6831471238382405,26.7,13113,100,0.972,87.14231205711654
2025-05-21 22:28:51.656,WT901BLE68(4F145CEDD531),0.249,0.958,0.109,1.526,25.085,2.869,83.28,-16.95,-147.55,-56.558,-55.975,34.558,-0.31471710247528845,-0.09155497531494332,0.6525954635884151,0.6831471238382405,26.7,13113,100,0.972,87.14231205711654
2025-05-21 22:28:51.792,WT901BLE68(4F145CEDD531),0.195,1.006,0.05,3.967,32.043,-1.77,83.08,-16.68,-144.11,-56.558,-55.975,34.558,-0.31471710247528845,-0.09155497531494332,0.6525954635884151,0.6831471238382405,26.7,13113,100,1.011,87.14231205711654
2025-05-21 22:28:51.859,WT901BLE68(4F145CEDD531),0.248,1.0,0.045,12.939,20.874,-8.606,83.25,-15.75,-140.93,-53.767,-55.2,35.35,-0.31471710247528845,-0.09155497531494332,0.6525954635884151,0.6831471238382405,26.7,13113,100,1.012,87.14231205711654
2025-05-21 22:28:51.996,WT901BLE68(4F145CEDD531),0.241,0.935,0.042,8.057,24.78,-0.061,83.79,-14.89,-138.33,-53.767,-55.2,35.35,-0.31471710247528845,-0.09155497531494332,0.6525954635884151,0.6831471238382405,26.7,13113,100,1.012,87.14231205711654
2025-05-21 22:28:52.630,WT901BLE68(4F145CEDD531),0.251,0.982,0.061,19.714,35.889,11.292,84.48,-15.06,-134.8,-53.767,-55.2,35.35,-0.3633290960436301,-0.16656875460908602,0.6525942993978456,0.6437138326535572,26.7,13113,100,1.012,83.35168924701782
2025-05-21 22:28:52.195,WT901BLE68(4F145CEDD531),0.277,0.978,0.1,16.174,48.096,19.165,85.12,-16.27,-130.05,-53.767,-55.2,35.35,-0.3633290960436301,-0.16656875460908602,0.6525942993978456,0.6437138326535572,26.7,13113,100,1.012,83.35168924701782
2025-05-21 22:28:52.264,WT901BLE68(4F145CEDD531),0.274,0.989,0.13,10.437,54.749,11.047,84.77,-17.15,-124.71,-60.4,-52.217,33.317,-0.3633290960436301,-0.16656875460908602,0.6525942993978456,0.6437138326535572,26.7,13113,100,1.012,83.35168924701782
2025-05-21 22:28:52.400,WT901BLE68(4F145CEDD531),0.24,0.962,0.179,24.048,54.871,2.258,84.51,-17.22,-119.27,-60.4,-52.217,33.317,-0.3633290960436301,-0.16656875460908602,0.6525942993978456,0.6437138326535572,26.7,13113,100,1.012,83.35168924701782
2025-05-21 22:28:52.467,WT901BLE68(4F145CEDD531),0.354,0.917,0.034,23.438,65.918,-4.395,84.67,-16.31,-113.78,-60.4,-52.217,33.317,-0.4808023040043716,-0.27845870900217823,0.6150313225443528,0.559487590688366,26.7,13113,100,1.012,77.35740109615578
2025-05-21 22:28:52.602,WT901BLE68(4F145CEDD531),0.294,0.95,0.023,23.926,78.735,-10.864,85.38,-14.75,-107.25,-60.4,-52.217,33.317,-0.4808023040043716,-0.27845870900217823,0.6150313225443528,0.559487590688366,26.7,13113,100,1.059,77.35740109615578
2025-05-21 22:28:52.668,WT901BLE68(4F145CEDD531),0.289,0.958,0.017,21.729,79.59,2.014,85.86,-14.19,-100.28,-65.025,-50.575,25.083,-0.4808023040043716,-0.27845870900217823,0.6150313225443528,0.559487590688366,26.7,13113,100,1.059,77.35740109615578
2025-05-21 22:28:52.792,WT901BLE68(4F145CEDD531),0.352,0.969,0.029,23.987,70.19,1.282,86.8,-14.0,-93.95,-65.025,-50.575,25.083,-0.5708727581726241,-0.4231616946649308,0.5456308675637266,0.4442132714207666,26.7,13113,100,1.059,75.68708099406604
2025-05-21 22:28:52.871,WT901BLE68(4F145CEDD531),0.323,0.958,0.031,13.367,66.589,9.46,87.19,-14.43,-88.6,-65.025,-50.575,25.083,-0.5708727581726241,-0.4231616946649308,0.5456308675637266,0.4442132714207666,26.7,13113,100,1.059,75.68708099406604
2025-05-21 22:28:52.995,WT901BLE68(4F145CEDD531),0.304,0.945,0.026,18.188,76.477,7.507,86.72,-15.3,-82.56,-65.025,-50.575,25.083,-0.5708727581726241,-0.4231616946649308,0.5456308675637266,0.4442132714207666,26.7,13113,100,1.059,75.68708099406604
2025-05-21 22:28:53.730,WT901BLE68(4F145CEDD531),0.324,0.998,0.058,14.404,66.895,4.639,86.95,-15.63,-76.77,-67.9,-48.508,14.125,-0.5708727581726241,-0.4231616946649308,0.5456308675637266,0.4442132714207666,26.7,13113,100,1.059,75.68708099406604
2025-05-21 22:28:53.190,WT901BLE68(4F145CEDD531),0.32,0.947,0.06,2.441,59.814,8.728,86.32,-15.9,-72.3,-67.9,-48.508,14.125,-0.65818083842617,-0.4928905825914277,0.4634987589044536,0.33019048746948765,26.7,13113,100,1.059,72.77851573075932
2025-05-21 22:28:53.276,WT901BLE68(4F145CEDD531),0.27,0.945,0.094,6.714,64.087,10.01,84.75,-16.63,-67.73,-67.9,-48.508,14.125,-0.65818083842617,-0.4928905825914277,0.4634987589044536,0.33019048746948765,26.7,13113,100,1.059,72.77851573075932
2025-05-21 22:28:53.395,WT901BLE68(4F145CEDD531),0.29,0.934,0.126,11.23,57.007,11.292,83.83,-17.07,-63.22,-67.9,-48.508,14.125,-0.65818083842617,-0.4928905825914277,0.4634987589044536,0.33019048746948765,26.7,13113,100,1.081,72.77851573075932
2025-05-21 22:28:53.477,WT901BLE68(4F145CEDD531),0.28,0.962,0.117,15.442,41.382,1.709,83.49,-17.41,-60.27,-67.058,-46.942,0.567,-0.65818083842617,-0.4928905825914277,0.4634987589044536,0.33019048746948765,26.7,13113,100,1.081,72.77851573075932
2025-05-21 22:28:53.599,WT901BLE68(4F145CEDD531),0.286,0.952,0.103,11.78,39.673,2.686,83.95,-17.0,-58.49,-67.058,-46.942,0.567,-0.65818083842617,-0.4928905825914277,0.4634987589044536,0.33019048746948765,26.7,13113,100,1.081,72.77851573075932
2025-05-21 22:28:53.681,WT901BLE68(4F145CEDD531),0.237,0.922,0.078,17.273,30.64,-3.662,84.47,-16.51,-56.8,-67.058,-46.942,0.567,-0.690164192179462,-0.5356142961332467,0.4093862135723999,0.263046843257642,26.7,13113,100,1.081,73.27087510867129
2025-05-21 22:28:53.794,WT901BLE68(4F145CEDD531),0.222,0.99,0.077,17.883,34.607,-1.587,85.42,-15.89,-55.57,-62.383,-49.55,-1.275,-0.690164192179462,-0.5356142961332467,0.4093862135723999,0.263046843257642,26.7,13113,100,1.081,73.27087510867129
2025-05-21 22:28:53.895,WT901BLE68(4F145CEDD531),0.208,0.981,0.098,8.301,21.118,-10.132,85.73,-15.14,-54.88,-62.383,-49.55,-1.275,-0.690164192179462,-0.5356142961332467,0.4093862135723999,0.263046843257642,26.7,13113,100,1.081,73.27087510867129
2025-05-21 22:28:53.996,WT901BLE68(4F145CEDD531),0.196,0.958,0.09,6.042,16.235,-5.493,85.83,-12.47,-56.08,-62.383,-49.55,-1.275,-0.690164192179462,-0.5356142961332467,0.4093862135723999,0.263046843257642,26.7,13113,100,1.081,73.27087510867129
2025-05-21 22:28:54.930,WT901BLE68(4F145CEDD531),0.209,0.96,0.078,3.052,12.085,3.967,85.85,-12.78,-56.56,-62.383,-49.55,-1.275,-0.6765844206124113,-0.5570465724499943,0.3930358044533712,0.27830827210841624,26.7,13113,100,1.081,77.02727191679251
2025-05-21 22:28:54.199,WT901BLE68(4F145CEDD531),0.202,0.959,0.089,9.888,7.69,-0.305,86.33,-12.76,-57.66,-62.383,-49.55,-1.275,-0.6765844206124113,-0.5570465724499943,0.3930358044533712,0.27830827210841624,26.7,13113,100,1.124,77.02727191679251
2025-05-21 22:28:54.298,WT901BLE68(4F145CEDD531),0.223,1.02,0.102,14.648,0.122,0.732,87.44,-12.64,-59.1,-58.708,-52.517,-2.25,-0.6765844206124113,-0.5570465724499943,0.3930358044533712,0.27830827210841624,26.7,13113,100,1.125,77.02727191679251
2025-05-21 22:28:54.402,WT901BLE68(4F145CEDD531),0.253,1.012,0.072,7.568,-9.277,-0.122,88.6,-12.52,-61.82,-58.708,-52.517,-2.25,-0.6765844206124113,-0.5570465724499943,0.3930358044533712,0.27830827210841624,26.7,13113,100,1.125,77.02727191679251
2025-05-21 22:28:54.500,WT901BLE68(4F145CEDD531),0.256,0.972,0.068,-10.132,4.578,2.625,87.98,-12.69,-63.83,-58.708,-52.517,-2.25,-0.6481207478969799,-0.5419124317788765,0.43304390736628956,0.3142346045901061,26.7,13113,100,1.125,77.57420216201385
2025-05-21 22:28:54.625,WT901BLE68(4F145CEDD531),0.233,0.986,0.081,-19.409,9.338,10.254,86.27,-13.41,-64.75,-58.708,-52.517,-2.25,-0.6481207478969799,-0.5419124317788765,0.43304390736628956,0.3142346045901061,26.7,13113,100,1.125,77.57420216201385
2025-05-21 22:28:54.695,WT901BLE68(4F145CEDD531),0.289,0.956,0.087,0.793,-4.639,11.658,85.76,-14.24,-66.17,-60.225,-50.908,-3.208,-0.6481207478969799,-0.5419124317788765,0.43304390736628956,0.3142346045901061,26.7,13113,100,1.125,77.57420216201385
2025-05-21 22:28:54.807,WT901BLE68(4F145CEDD531),0.28,0.944,0.075,1.77,5.249,3.418,85.73,-14.95,-67.43,-60.225,-50.908,-3.208,-0.6481207478969799,-0.5419124317788765,0.43304390736628956,0.3142346045901061,26.7,13113,100,1.125,77.57420216201385
2025-05-21 22:28:54.900,WT901BLE68(4F145CEDD531),0.271,0.953,0.062,3.967,8.24,3.906,85.67,-15.17,-67.94,-60.225,-50.908,-3.208,-0.6527422351983938,-0.5045449165820864,0.4575725968883962,0.3316463781140833,26.7,13113,100,1.125,74.2827533667528
2025-05-21 22:28:55.800,WT901BLE68(4F145CEDD531),0.298,0.975,0.059,5.737,12.329,11.841,85.99,-15.83,-68.15,-60.225,-50.908,-3.208,-0.6527422351983938,-0.5045449165820864,0.4575725968883962,0.3316463781140833,26.7,13113,100,1.169,74.2827533667528
2025-05-21 22:28:55.970,WT901BLE68(4F145CEDD531),0.31,0.937,0.06,1.221,12.39,17.273,85.96,-17.73,-67.81,-62.633,-49.25,-4.283,-0.6527422351983938,-0.5045449165820864,0.4575725968883962,0.3316463781140833,26.7,13113,100,1.169,74.2827533667528
2025-05-21 22:28:55.212,WT901BLE68(4F145CEDD531),0.313,0.957,0.057,3.357,10.132,-0.977,85.94,-17.89,-67.93,-62.633,-49.25,-4.283,-0.6527422351983938,-0.5045449165820864,0.4575725968883962,0.3316463781140833,26.7,13113,100,1.169,74.2827533667528
2025-05-21 22:28:55.277,WT901BLE68(4F145CEDD531),0.294,0.955,0.081,2.197,12.207,-2.563,85.83,-17.67,-67.96,-62.633,-49.25,-4.283,-0.6585833613046599,-0.495122599004349,0.4689908784848806,0.31807094187588764,26.7,13113,100,1.169,72.0992559208864
2025-05-21 22:28:55.414,WT901BLE68(4F145CEDD531),0.28,0.954,0.098,3.784,10.376,-3.296,85.76,-17.32,-68.04,-62.633,-49.25,-4.283,-0.6585833613046599,-0.495122599004349,0.4689908784848806,0.31807094187588764,26.7,13113,100,1.17,72.0992559208864
2025-05-21 22:28:55.481,WT901BLE68(4F145CEDD531),0.29,0.97,0.09,2.869,5.676,-2.869,85.95,-16.98,-68.55,-60.733,-49.892,-5.158,-0.6585833613046599,-0.495122599004349,0.4689908784848806,0.31807094187588764,26.7,13113,100,1.17,72.0992559208864
2025-05-21 22:28:55.616,WT901BLE68(4F145CEDD531),0.291,0.967,0.104,-1.099,0.122,-3.052,85.77,-16.68,-69.53,-60.733,-49.892,-5.158,-0.6585833613046599,-0.495122599004349,0.4689908784848806,0.31807094187588764,26.7,13113,100,1.17,72.0992559208864
2025-05-21 22:28:55.704,WT901BLE68(4F145CEDD531),0.295,0.976,0.09,0.366,-1.404,4.578,85.74,-16.62,-70.91,-60.733,-49.892,-5.158,-0.6473447028139846,-0.48546602483202894,0.47820563561754204,0.3414483043391555,26.7,13113,100,1.17,72.81418197683455
2025-05-21 22:28:55.819,WT901BLE68(4F145CEDD531),0.306,0.955,0.103,-4.761,8.972,2.991,85.31,-17.09,-71.72,-60.733,-49.892,-5.158,-0.6473447028139846,-0.48546602483202894,0.47820563561754204,0.3414483043391555,26.7,13113,100,1.214,72.81418197683455
2025-05-21 22:28:55.896,WT901BLE68(4F145CEDD531),0.286,0.998,0.099,-16.968,14.526,-0.61,83.84,-16.96,-71.74,-60.533,-48.975,-6.958,-0.6473447028139846,-0.48546602483202894,0.47820563561754204,0.3414483043391555,26.7,13113,100,1.214,72.81418197683455
2025-05-21 22:28:56.220,WT901BLE68(4F145CEDD531),0.266,0.978,0.104,-12.817,11.963,-11.292,82.17,-16.28,-71.25,-60.533,-48.975,-6.958,-0.6473447028139846,-0.48546602483202894,0.47820563561754204,0.3414483043391555,26.7,13113,100,1.214,72.81418197683455
2025-05-21 22:28:56.100,WT901BLE68(4F145CEDD531),0.231,0.948,0.164,-33.264,13.245,-8.118,80.15,-14.89,-70.85,-60.533,-48.975,-6.958,-0.6700757641040894,-0.45882448894238587,0.44634382280899226,0.3758400597958314,26.7,13113,100,1.214,72.75557335149028
2025-05-21 22:28:56.225,WT901BLE68(4F145CEDD531),0.209,0.929,0.222,-39.307,5.92,-2.502,76.41,-14.28,-70.7,-60.533,-48.975,-6.958,-0.6700757641040894,-0.45882448894238587,0.44634382280899226,0.3758400597958314,26.7,13113,100,1.214,72.75557335149028
2025-05-21 22:28:56.300,WT901BLE68(4F145CEDD531),0.204,0.924,0.29,-32.166,-0.854,-5.432,72.97,-13.96,-71.14,-56.325,-44.583,-18.517,-0.6700757641040894,-0.45882448894238587,0.44634382280899226,0.3758400597958314,26.7,13113,100,1.214,72.75557335149028
2025-05-21 22:28:56.428,WT901BLE68(4F145CEDD531),0.239,0.92,0.333,-24.475,-10.742,-2.441,70.44,-13.77,-72.49,-56.325,-44.583,-18.517,-0.6700757641040894,-0.45882448894238587,0.44634382280899226,0.3758400597958314,26.7,13113,100,1.214,72.75557335149028
2025-05-21 22:28:56.498,WT901BLE68(4F145CEDD531),0.229,0.894,0.363,-22.217,-9.583,-6.897,68.52,-13.6,-74.25,-56.325,-44.583,-18.517,-0.6943205496953508,-0.3827778679705237,0.41461018550808554,0.44665251833571606,26.7,13113,100,1.214,72.0633494856406
2025-05-21 22:28:56.629,WT901BLE68(4F145CEDD531),0.246,0.896,0.393,-19.897,-12.817,-7.08,66.78,-13.29,-75.95,-56.325,-44.583,-18.517,-0.6943205496953508,-0.3827778679705237,0.41461018550808554,0.44665251833571606,26.7,13113,100,1.26,72.0633494856406
2025-05-21 22:28:56.703,WT901BLE68(4F145CEDD531),0.266,0.866,0.416,-9.338,-14.16,-2.258,65.76,-13.36,-77.82,-57.117,-39.125,-22.542,-0.6943205496953508,-0.3827778679705237,0.41461018550808554,0.44665251833571606,26.7,13113,100,1.261,72.0633494856406
2025-05-21 22:28:56.853,WT901BLE68(4F145CEDD531),0.285,0.869,0.397,9.888,-21.545,-0.061,66.12,-14.04,-79.85,-57.117,-39.125,-22.542,-0.6943205496953508,-0.3827778679705237,0.41461018550808554,0.44665251833571606,26.7,13113,100,1.261,72.0633494856406
2025-05-21 22:28:56.900,WT901BLE68(4F145CEDD531),0.305,0.884,0.355,21.729,-24.78,-1.648,68.24,-14.79,-82.34,-57.117,-39.125,-22.542,-0.6599787670704034,-0.3489904996583912,0.454066671819629,0.4862685633547186,26.7,13113,100,1.261,73.53097017880613
2025-05-21 22:28:57.110,WT901BLE68(4F145CEDD531),0.326,0.92,0.297,27.649,-25.452,2.869,71.53,-15.77,-85.11,-57.117,-39.125,-22.542,-0.6599787670704034,-0.3489904996583912,0.454066671819629,0.4862685633547186,26.7,13113,100,1.261,73.53097017880613
2025-05-21 22:28:57.101,WT901BLE68(4F145CEDD531),0.331,0.93,0.227,25.94,-25.574,4.822,74.73,-17.02,-87.78,-62.817,-43.758,-12.042,-0.6599787670704034,-0.3489904996583912,0.454066671819629,0.4862685633547186,26.7,13113,100,1.261,73.53097017880613
2025-05-21 22:28:57.214,WT901BLE68(4F145CEDD531),0.331,0.931,0.173,21.118,-26.978,1.892,77.77,-18.13,-90.46,-62.817,-43.758,-12.042,-0.6599787670704034,-0.3489904996583912,0.454066671819629,0.4862685633547186,26.7,13113,100,1.261,73.53097017880613
2025-05-21 22:28:57.304,WT901BLE68(4F145CEDD531),0.355,0.947,0.131,22.095,-26.001,-1.892,80.76,-18.72,-93.2,-62.817,-43.758,-12.042,-0.5874122478556932,-0.3493951291917251,0.5554899519407611,0.47360406254493875,26.7,13113,100,1.261,72.10675224675343
2025-05-21 22:28:57.415,WT901BLE68(4F145CEDD531),0.314,0.937,0.098,13.0,-16.541,-1.892,83.08,-19.02,-95.31,-62.817,-43.758,-12.042,-0.5874122478556932,-0.3493951291917251,0.5554899519407611,0.47360406254493875,26.7,13113,100,1.289,72.10675224675343
2025-05-21 22:28:57.507,WT901BLE68(4F145CEDD531),0.312,0.907,0.096,11.963,-8.789,-3.784,84.61,-18.88,-96.6,-66.408,-47.1,-0.217,-0.5874122478556932,-0.3493951291917251,0.5554899519407611,0.47360406254493875,26.7,13113,100,1.289,72.10675224675343
2025-05-21 22:28:57.619,WT901BLE68(4F145CEDD531),0.288,0.988,0.094,-4.822,-5.859,-16.113,85.44,-17.45,-97.16,-66.408,-47.1,-0.217,-0.5874122478556932,-0.3493951291917251,0.5554899519407611,0.47360406254493875,26.7,13113,100,1.289,72.10675224675343
2025-05-21 22:28:57.707,WT901BLE68(4F145CEDD531),0.307,0.969,0.15,-16.113,-5.737,-4.333,84.34,-16.75,-97.82,-66.408,-47.1,-0.217,-0.5567373162351693,-0.3518635842360014,0.5690381407181809,0.4923730021110531,26.7,13113,100,1.289,74.4831539774103
2025-05-21 22:28:57.823,WT901BLE68(4F145CEDD531),0.317,0.971,0.221,-27.222,0.122,7.202,81.82,-16.92,-98.02,-66.408,-47.1,-0.217,-0.5567373162351693,-0.3518635842360014,0.5690381407181809,0.4923730021110531,26.7,13113,100,1.289,74.4831539774103
2025-05-21 22:28:57.911,WT901BLE68(4F145CEDD531),0.322,0.941,0.284,-42.969,3.418,15.137,78.08,-18.07,-97.58,-65.733,-45.075,-6.308,-0.5567373162351693,-0.3518635842360014,0.5690381407181809,0.4923730021110531,26.7,13113,100,1.289,74.4831539774103
2025-05-21 22:28:58.250,WT901BLE68(4F145CEDD531),0.333,0.926,0.311,-29.297,-2.625,3.296,74.09,-18.87,-97.31,-65.733,-45.075,-6.308,-0.5567373162351693,-0.3518635842360014,0.5690381407181809,0.4923730021110531,26.7,13113,100,1.289,74.4831539774103
2025-05-21 22:28:58.115,WT901BLE68(4F145CEDD531),0.292,0.912,0.317,-15.503,6.226,-1.526,72.16,-18.69,-97.13,-65.733,-45.075,-6.308,-0.6020520098792359,-0.2866352398119441,0.517877534493808,0.5358884920997431,26.7,13113,100,1.289,74.85115253633923
2025-05-21 22:28:58.227,WT901BLE68(4F145CEDD531),0.32,0.899,0.318,-13.916,7.996,2.075,70.54,-18.26,-95.64,-65.733,-45.075,-6.308,-0.6020520098792359,-0.2866352398119441,0.517877534493808,0.5358884920997431,26.7,13113,100,1.326,74.85115253633923
2025-05-21 22:28:58.316,WT901BLE68(4F145CEDD531),0.31,0.897,0.338,-12.817,2.441,0.732,69.05,-18.26,-94.91,-65.075,-40.575,-14.2,-0.6020520098792359,-0.2866352398119441,0.517877534493808,0.5358884920997431,26.7,13113,100,1.326,74.85115253633923
2025-05-21 22:28:58.430,WT901BLE68(4F145CEDD531),0.308,0.893,0.363,-9.705,2.869,-2.441,67.98,-18.08,-94.33,-65.075,-40.575,-14.2,-0.6020520098792359,-0.2866352398119441,0.517877534493808,0.5358884920997431,26.7,13113,100,1.326,74.85115253633923
2025-05-21 22:28:58.517,WT901BLE68(4F145CEDD531),0.318,0.887,0.375,-10.437,1.465,-4.456,67.05,-17.69,-94.06,-65.075,-40.575,-14.2,-0.624148748918888,-0.2774572253289585,0.48437007106339297,0.5466639384427933,26.7,13113,100,1.326,75.61998341925016
2025-05-21 22:28:58.630,WT901BLE68(4F145CEDD531),0.31,0.892,0.389,-7.141,-1.343,-0.549,66.22,-17.44,-93.97,-65.075,-40.575,-14.2,-0.624148748918888,-0.2774572253289585,0.48437007106339297,0.5466639384427933,26.7,13113,100,1.326,75.61998341925016
2025-05-21 22:28:58.720,WT901BLE68(4F145CEDD531),0.304,0.882,0.406,4.333,-3.235,0.244,66.28,-17.58,-94.07,-65.217,-38.925,-16.208,-0.624148748918888,-0.2774572253289585,0.48437007106339297,0.5466639384427933,26.7,13113,100,1.327,75.61998341925016
2025-05-21 22:28:58.835,WT901BLE68(4F145CEDD531),0.289,0.884,0.411,-2.747,1.587,-0.732,66.29,-17.64,-94.14,-65.217,-38.925,-16.208,-0.624148748918888,-0.2774572253289585,0.48437007106339297,0.5466639384427933,26.7,13113,100,1.327,75.61998341925016
2025-05-21 22:28:58.924,WT901BLE68(4F145CEDD531),0.303,0.876,0.42,-3.54,7.69,1.709,65.78,-17.51,-93.55,-65.217,-38.925,-16.208,-0.630933778007218,-0.27427903114054686,0.47540298633880906,0.5483480477090106,26.7,13113,100,1.327,75.6307003404955
2025-05-21 22:28:59.370,WT901BLE68(4F145CEDD531),0.291,0.883,0.44,6.042,7.263,-3.601,65.1,-17.11,-92.66,-65.217,-38.925,-16.208,-0.630933778007218,-0.27427903114054686,0.47540298633880906,0.5483480477090106,26.7,13113,100,1.374,75.6307003404955
2025-05-21 22:28:59.127,WT901BLE68(4F145CEDD531),0.273,0.868,0.433,-2.38,10.864,1.038,65.24,-16.61,-92.02,-63.575,-38.875,-17.592,-0.630933778007218,-0.27427903114054686,0.47540298633880906,0.5483480477090106,26.7,13113,100,1.374,75.6307003404955
2025-05-21 22:28:59.237,WT901BLE68(4F145CEDD531),0.25,0.889,0.427,-14.526,14.099,-2.38,63.82,-16.08,-90.95,-63.575,-38.875,-17.592,-0.630933778007218,-0.27427903114054686,0.47540298633880906,0.5483480477090106,26.7,13113,100,1.374,75.6307003404955
2025-05-21 22:28:59.329,WT901BLE68(4F145CEDD531),0.276,0.87,0.444,-15.198,13.489,-1.16,62.03,-15.31,-89.59,-63.575,-38.875,-17.592,-0.6556734002964018,-0.2804742874857068,0.43429212303507775,0.5502880319185803,26.7,13113,100,1.374,76.28841930400708
2025-05-21 22:28:59.440,WT901BLE68(4F145CEDD531),0.268,0.821,0.456,-13.489,24.841,4.639,59.98,-14.79,-87.61,-63.575,-38.875,-17.592,-0.6556734002964018,-0.2804742874857068,0.43429212303507775,0.5502880319185803,26.7,13113,100,1.374,76.28841930400708
2025-05-21 22:28:59.509,WT901BLE68(4F145CEDD531),0.229,0.919,0.471,-29.846,23.315,6.47,57.62,-14.62,-85.19,-60.017,-33.525,-26.925,-0.6556734002964018,-0.2804742874857068,0.43429212303507775,0.5502880319185803,26.7,13113,100,1.374,76.28841930400708
2025-05-21 22:28:59.642,WT901BLE68(4F145CEDD531),0.218,0.799,0.559,-44.739,16.907,-0.854,53.37,-13.62,-83.02,-60.017,-33.525,-26.925,-0.6556734002964018,-0.2804742874857068,0.43429212303507775,0.5502880319185803,26.7,13113,100,1.374,76.28841930400708
2025-05-21 22:28:59.711,WT901BLE68(4F145CEDD531),0.188,0.747,0.641,-35.156,13.489,-2.625,49.42,-12.5,-81.75,-60.017,-33.525,-26.925,-0.7167830030734826,-0.24439466234771,0.3372702343758295,0.5592335509650522,26.7,13113,100,1.374,75.2229680375287
2025-05-21 22:28:59.844,WT901BLE68(4F145CEDD531),0.177,0.714,0.703,-20.203,5.249,-0.61,46.84,-11.85,-81.01,-60.017,-33.525,-26.925,-0.7167830030734826,-0.24439466234771,0.3372702343758295,0.5592335509650522,26.7,13113,100,1.523,75.2229680375287
2025-05-21 22:28:59.916,WT901BLE68(4F145CEDD531),0.17,0.685,0.721,-0.671,-0.122,-3.174,45.98,-11.57,-80.95,-55.617,-24.4,-34.717,-0.7167830030734826,-0.24439466234771,0.3372702343758295,0.5592335509650522,26.7,13113,100,1.523,75.2229680375287
2025-05-21 22:29:00.480,WT901BLE68(4F145CEDD531),0.178,0.716,0.701,17.273,-6.348,-3.845,47.0,-11.4,-81.4,-55.617,-24.4,-34.717,-0.7167830030734826,-0.24439466234771,0.3372702343758295,0.5592335509650522,26.7,13113,100,1.523,75.2229680375287
2025-05-21 22:29:00.117,WT901BLE68(4F145CEDD531),0.205,0.758,0.654,30.273,-13.916,-3.479,49.52,-11.72,-82.54,-55.617,-24.4,-34.717,-0.6977027761079828,-0.2605459740552888,0.3609521299496234,0.5612844123077221,26.7,13113,100,1.523,76.45840532832811
2025-05-21 22:29:00.249,WT901BLE68(4F145CEDD531),0.224,0.807,0.574,37.72,-18.86,-3.113,53.23,-12.46,-84.18,-55.617,-24.4,-34.717,-0.6977027761079828,-0.2605459740552888,0.3609521299496234,0.5612844123077221,26.7,13113,100,1.523,76.45840532832811
2025-05-21 22:29:00.320,WT901BLE68(4F145CEDD531),0.251,0.846,0.5,39.307,-18.555,-1.648,57.4,-13.17,-85.96,-60.083,-35.767,-24.967,-0.6977027761079828,-0.2605459740552888,0.3609521299496234,0.5612844123077221,26.7,13113,100,1.523,76.45840532832811
2025-05-21 22:29:00.454,WT901BLE68(4F145CEDD531),0.258,0.883,0.447,36.072,-16.296,0.916,61.42,-13.94,-87.58,-60.083,-35.767,-24.967,-0.6977027761079828,-0.2605459740552888,0.3609521299496234,0.5612844123077221,26.7,13113,100,1.523,76.45840532832811
2025-05-21 22:29:00.522,WT901BLE68(4F145CEDD531),0.274,0.875,0.405,29.724,-16.418,7.08,64.87,-15.03,-88.87,-60.083,-35.767,-24.967,-0.6414534705682767,-0.3044258847177967,0.46193410338030105,0.5314877326372991,26.7,13113,100,1.523,75.54075187363892
2025-05-21 22:29:00.654,WT901BLE68(4F145CEDD531),0.281,0.898,0.357,25.146,-18.677,6.348,67.83,-16.33,-90.35,-60.083,-35.767,-24.967,-0.6414534705682767,-0.3044258847177967,0.46193410338030105,0.5314877326372991,26.7,13113,100,2.003,75.54075187363892
2025-05-21 22:29:00.725,WT901BLE68(4F145CEDD531),0.299,0.905,0.314,21.118,-17.517,0.122,70.44,-16.96,-91.98,-65.058,-42.358,-11.95,-0.6414534705682767,-0.3044258847177967,0.46193410338030105,0.5314877326372991,26.7,13113,100,2.003,75.54075187363892
2025-05-21 22:29:00.860,WT901BLE68(4F145CEDD531),0.324,0.923,0.287,13.428,-18.738,-2.014,72.54,-17.37,-93.91,-65.058,-42.358,-11.95,-0.6414534705682767,-0.3044258847177967,0.46193410338030105,0.5314877326372991,26.7,13113,100,2.013,75.54075187363892
2025-05-21 22:29:00.926,WT901BLE68(4F145CEDD531),0.34,0.914,0.296,7.202,-14.648,2.197,73.83,-17.77,-95.43,-65.058,-42.358,-11.95,-0.596867211921179,-0.3012287802268289,0.5258827863692375,0.5257927807578021,26.7,13113,100,2.013,74.59701484025483
2025-05-21 22:29:01.400,WT901BLE68(4F145CEDD531),0.314,0.952,0.349,-40.405,-6.592,-15.869,72.88,-17.95,-96.71,-65.058,-42.358,-11.95,-0.596867211921179,-0.3012287802268289,0.5258827863692375,0.5257927807578021,26.7,13113,100,2.013,74.59701484025483
2025-05-21 22:29:01.129,WT901BLE68(4F145CEDD531),0.353,0.942,0.358,-20.691,-6.592,8.118,70.11,-17.81,-97.08,-66.983,-40.467,-11.358,-0.596867211921179,-0.3012287802268289,0.5258827863692375,0.5257927807578021,26.7,13113,100,2.013,74.59701484025483
2025-05-21 22:29:01.242,WT901BLE68(4F145CEDD531),0.359,0.833,0.403,-23.01,-10.803,12.634,67.77,-19.42,-97.48,-66.983,-40.467,-11.358,-0.596867211921179,-0.3012287802268289,0.5258827863692375,0.5257927807578021,26.7,13113,100,2.013,74.59701484025483
2025-05-21 22:29:01.332,WT901BLE68(4F145CEDD531),0.36,0.838,0.411,-15.137,-8.423,-0.122,65.87,-20.36,-97.87,-66.983,-40.467,-11.358,-0.6149436725751222,-0.23051637100108255,0.49960548139267164,0.5648901178306355,26.7,13113,100,2.013,75.19543933373987
2025-05-21 22:29:01.444,WT901BLE68(4F145CEDD531),0.374,0.836,0.414,-9.949,-11.108,-2.38,64.87,-20.81,-98.68,-66.983,-40.467,-11.358,-0.6149436725751222,-0.23051637100108255,0.49960548139267164,0.5648901178306355,26.7,13113,100,2.263,75.19543933373987
2025-05-21 22:29:01.533,WT901BLE68(4F145CEDD531),0.373,0.854,0.406,-1.709,-5.31,-2.563,64.65,-20.93,-99.34,-68.958,-37.075,-13.158,-0.6149436725751222,-0.23051637100108255,0.49960548139267164,0.5648901178306355,26.7,13113,100,2.263,75.19543933373987
2025-05-21 22:29:01.646,WT901BLE68(4F145CEDD531),0.373,0.854,0.408,1.038,-2.625,-0.671,64.7,-21.01,-99.48,-68.958,-37.075,-13.158,-0.6149436725751222,-0.23051637100108255,0.49960548139267164,0.5648901178306355,26.7,13113,100,2.263,75.19543933373987
2025-05-21 22:29:01.736,WT901BLE68(4F145CEDD531),0.37,0.857,0.401,0.427,-1.77,0.61,64.76,-21.13,-99.31,-68.958,-37.075,-13.158,-0.6135267669692692,-0.22386341551789096,0.501950080485771,0.5670239801853428,26.7,13113,100,2.263,75.12340846248374
2025-05-21 22:29:01.849,WT901BLE68(4F145CEDD531),0.359,0.849,0.4,3.479,1.099,1.221,64.93,-21.25,-98.96,-68.958,-37.075,-13.158,-0.6135267669692692,-0.22386341551789096,0.501950080485771,0.5670239801853428,26.7,13113,100,2.263,75.12340846248374
2025-05-21 22:29:01.939,WT901BLE68(4F145CEDD531),0.354,0.858,0.396,3.601,2.319,-0.488,65.14,-21.19,-98.48,-69.917,-37.05,-12.15,-0.6135267669692692,-0.22386341551789096,0.501950080485771,0.5670239801853428,26.7,13113,100,2.263,75.12340846248374
2025-05-21 22:29:02.510,WT901BLE68(4F145CEDD531),0.355,0.88,0.381,2.258,0.61,0.549,65.41,-21.12,-98.21,-69.917,-37.05,-12.15,-0.6135267669692692,-0.22386341551789096,0.501950080485771,0.5670239801853428,26.7,13113,100,2.263,75.12340846248374
2025-05-21 22:29:02.141,WT901BLE68(4F145CEDD531),0.334,0.855,0.39,1.892,-0.549,-0.61,65.62,-21.13,-97.95,-69.917,-37.05,-12.15,-0.6145047895142804,-0.23551333332890628,0.5049685882424542,0.5585016189562391,26.7,13113,100,2.263,74.62004430867246
2025-05-21 22:29:02.254,WT901BLE68(4F145CEDD531),0.346,0.849,0.386,8.118,-8.667,-7.935,66.28,-20.86,-98.42,-69.917,-37.05,-12.15,-0.6145047895142804,-0.23551333332890628,0.5049685882424542,0.5585016189562391,26.7,13113,100,1.532,74.62004430867246
2025-05-21 22:29:02.346,WT901BLE68(4F145CEDD531),0.34,0.883,0.335,18.188,-13.733,-9.094,67.99,-20.41,-99.84,-69.0,-40.167,-8.667,-0.6145047895142804,-0.23551333332890628,0.5049685882424542,0.5585016189562391,26.7,13113,100,1.532,74.62004430867246
2025-05-21 22:29:02.455,WT901BLE68(4F145CEDD531),0.293,0.842,0.293,33.508,-18.25,-8.667,71.14,-20.17,-101.55,-69.0,-40.167,-8.667,-0.6145047895142804,-0.23551333332890628,0.5049685882424542,0.5585016189562391,26.7,13113,100,1.532,74.62004430867246
2025-05-21 22:29:02.547,WT901BLE68(4F145CEDD531),0.424,0.886,0.211,62.805,-28.809,-9.094,76.76,-19.82,-104.01,-69.0,-40.167,-8.667,-0.5409893812406129,-0.279410339633635,0.5932131828643947,0.526648337286476,26.7,13113,100,1.532,73.19335741136784
2025-05-21 22:29:02.660,WT901BLE68(4F145CEDD531),0.364,1.02,0.112,36.255,-23.56,9.827,82.25,-20.59,-106.42,-69.0,-40.167,-8.667,-0.5409893812406129,-0.279410339633635,0.5932131828643947,0.526648337286476,26.7,13113,100,1.532,73.19335741136784
2025-05-21 22:29:02.748,WT901BLE68(4F145CEDD531),0.396,0.987,0.083,6.592,-1.465,0.671,84.87,-21.26,-107.92,-71.142,-45.65,6.692,-0.5409893812406129,-0.279410339633635,0.5932131828643947,0.526648337286476,26.7,13113,100,1.532,73.19335741136784
2025-05-21 22:29:02.890,WT901BLE68(4F145CEDD531),0.32,0.916,0.066,-4.822,19.775,-0.732,84.17,-21.04,-106.24,-71.142,-45.65,6.692,-0.5409893812406129,-0.279410339633635,0.5932131828643947,0.526648337286476,26.7,13113,100,1.532,73.19335741136784
2025-05-21 22:29:02.952,WT901BLE68(4F145CEDD531),0.334,0.933,0.061,0.0,8.85,-0.549,83.68,-20.88,-104.55,-71.142,-45.65,6.692,-0.545708788835254,-0.2993657930249107,0.6001916630760995,0.5023465012603078,26.7,13113,100,1.532,71.57541083575052
2025-05-21 22:29:03.630,WT901BLE68(4F145CEDD531),0.349,0.933,0.054,3.845,2.136,-1.282,83.91,-20.71,-103.86,-71.142,-45.65,6.692,-0.545708788835254,-0.2993657930249107,0.6001916630760995,0.5023465012603078,26.7,13113,100,1.574,71.57541083575052
2025-05-21 22:29:03.153,WT901BLE68(4F145CEDD531),0.361,0.944,0.069,3.723,0.0,-2.014,84.48,-20.48,-103.57,-70.342,-46.008,6.242,-0.545708788835254,-0.2993657930249107,0.6001916630760995,0.5023465012603078,26.7,13113,100,1.574,71.57541083575052
2025-05-21 22:29:03.267,WT901BLE68(4F145CEDD531),0.338,0.941,0.068,-1.282,-10.62,-1.648,84.83,-20.41,-103.88,-70.342,-46.008,6.242,-0.545708788835254,-0.2993657930249107,0.6001916630760995,0.5023465012603078,26.7,13113,100,1.574,71.57541083575052
2025-05-21 22:29:03.358,WT901BLE68(4F145CEDD531),0.351,0.937,0.072,-3.662,-7.385,0.549,84.91,-20.43,-104.65,-70.342,-46.008,6.242,-0.5366509830167664,-0.30049734891893326,0.6070650483035811,0.5031690499702878,26.7,13113,100,1.574,71.75719761162348
2025-05-21 22:29:03.467,WT901BLE68(4F145CEDD531),0.352,0.932,0.069,-1.038,-3.662,-0.854,84.97,-20.42,-105.09,-70.342,-46.008,6.242,-0.5366509830167664,-0.30049734891893326,0.6070650483035811,0.5031690499702878,26.7,13113,100,1.574,71.75719761162348
2025-05-21 22:29:03.536,WT901BLE68(4F145CEDD531),0.346,0.939,0.069,0.0,-1.282,-1.16,85.05,-20.3,-105.12,-70.358,-45.983,6.333,-0.5366509830167664,-0.30049734891893326,0.6070650483035811,0.5031690499702878,26.7,13113,100,1.575,71.75719761162348
2025-05-21 22:29:03.672,WT901BLE68(4F145CEDD531),0.337,0.936,0.071,0.549,0.671,-0.854,85.15,-20.23,-104.95,-70.358,-45.983,6.333,-0.5366509830167664,-0.30049734891893326,0.6070650483035811,0.5031690499702878,26.7,13113,100,1.575,71.75719761162348
2025-05-21 22:29:03.740,WT901BLE68(4F145CEDD531),0.343,0.944,0.063,2.014,2.563,-2.502,85.25,-20.09,-104.65,-70.358,-45.983,6.333,-0.5366767690583318,-0.3106854967732264,0.6050101774804986,0.499414910463133,26.7,13113,100,1.575,72.05411858542709
2025-05-21 22:29:03.877,WT901BLE68(4F145CEDD531),0.327,0.938,0.053,4.7,4.395,-3.418,85.48,-19.76,-104.12,-70.358,-45.983,6.333,-0.5366767690583318,-0.3106854967732264,0.6050101774804986,0.499414910463133,26.7,13113,100,1.619,72.05411858542709
2025-05-21 22:29:03.941,WT901BLE68(4F145CEDD531),0.323,0.941,0.058,1.099,3.174,-2.441,85.91,-19.5,-103.69,-69.633,-47.1,6.4,-0.5366767690583318,-0.3106854967732264,0.6050101774804986,0.499414910463133,26.7,13113,100,1.619,72.05411858542709
2025-05-21 22:29:04.780,WT901BLE68(4F145CEDD531),0.319,0.952,0.051,-0.244,1.892,-2.075,85.89,-19.18,-103.29,-69.633,-47.1,6.4,-0.5366767690583318,-0.3106854967732264,0.6050101774804986,0.499414910463133,26.7,13113,100,1.619,72.05411858542709
2025-05-21 22:29:04.145,WT901BLE68(4F145CEDD531),0.325,0.95,0.054,-0.122,3.723,-0.916,85.88,-19.02,-102.92,-69.633,-47.1,6.4,-0.5399569242999329,-0.3263723185754984,0.5985509311800875,0.4936237558623572,26.7,13113,100,1.619,72.56441470682306
2025-05-21 22:29:04.279,WT901BLE68(4F145CEDD531),0.326,0.951,0.063,-2.319,3.723,-1.526,85.7,-18.89,-102.39,-69.633,-47.1,6.4,-0.5399569242999329,-0.3263723185754984,0.5985509311800875,0.4936237558623572,26.7,13113,100,1.619,72.56441470682306
2025-05-21 22:29:04.348,WT901BLE68(4F145CEDD531),0.331,0.962,0.076,-8.972,6.348,1.892,84.95,-18.82,-101.68,-68.983,-46.7,3.733,-0.5399569242999329,-0.3263723185754984,0.5985509311800875,0.4936237558623572,26.7,13113,100,1.619,72.56441470682306
2025-05-21 22:29:04.491,WT901BLE68(4F145CEDD531),0.324,0.951,0.097,-9.277,-0.61,4.089,84.0,-19.12,-101.2,-68.983,-46.7,3.733,-0.5399569242999329,-0.3263723185754984,0.5985509311800875,0.4936237558623572,26.7,13113,100,1.62,72.56441470682306
2025-05-21 22:29:04.550,WT901BLE68(4F145CEDD531),0.33,0.958,0.098,-14.587,-3.662,8.301,82.86,-19.84,-101.06,-68.983,-46.7,3.733,-0.5722803383151691,-0.3050114993407371,0.5748105166598101,0.49905517689437245,26.7,13113,100,1.62,71.58944510188476
2025-05-21 22:29:04.689,WT901BLE68(4F145CEDD531),0.368,0.947,0.138,-28.564,15.808,14.099,80.24,-20.8,-99.57,-68.983,-46.7,3.733,-0.5722803383151691,-0.3050114993407371,0.5748105166598101,0.49905517689437245,26.7,13113,100,1.642,71.58944510188476
2025-05-21 22:29:04.751,WT901BLE68(4F145CEDD531),0.36,0.922,0.185,-31.311,20.02,15.381,76.55,-21.69,-97.0,-71.108,-40.583,-4.625,-0.5722803383151691,-0.3050114993407371,0.5748105166598101,0.49905517689437245,26.7,13113,100,1.643,71.58944510188476
2025-05-21 22:29:04.893,WT901BLE68(4F145CEDD531),0.397,0.876,0.261,-29.846,16.235,15.625,72.96,-22.54,-94.48,-71.108,-40.583,-4.625,-0.5722803383151691,-0.3050114993407371,0.5748105166598101,0.49905517689437245,26.7,13113,100,1.643,71.58944510188476
2025-05-21 22:29:04.953,WT901BLE68(4F145CEDD531),0.405,0.867,0.305,-25.574,16.479,15.198,69.59,-23.37,-92.33,-71.108,-40.583,-4.625,-0.6554925276244933,-0.2534325761306549,0.506435130922283,0.49962479297164863,26.7,13113,100,1.643,68.14283659759823
2025-05-21 22:29:05.930,WT901BLE68(4F145CEDD531),0.418,0.821,0.376,-22.644,5.981,12.512,66.71,-24.29,-90.71,-71.108,-40.583,-4.625,-0.6554925276244933,-0.2534325761306549,0.506435130922283,0.49962479297164863,26.7,13113,100,1.643,68.14283659759823
2025-05-21 22:29:05.155,WT901BLE68(4F145CEDD531),0.441,0.796,0.42,-12.085,2.441,5.615,64.89,-24.87,-90.22,-72.117,-33.092,-14.508,-0.6554925276244933,-0.2534325761306549,0.506435130922283,0.49962479297164863,26.7,13113,100,1.643,68.14283659759823
2025-05-21 22:29:05.269,WT901BLE68(4F145CEDD531),0.444,0.795,0.436,-7.69,-3.967,-1.282,64.02,-25.11,-90.61,-72.117,-33.092,-14.508,-0.6554925276244933,-0.2534325761306549,0.506435130922283,0.49962479297164863,26.7,13113,100,1.643,68.14283659759823
2025-05-21 22:29:05.358,WT901BLE68(4F145CEDD531),0.454,0.805,0.426,-7.813,-6.165,-0.61,63.58,-25.28,-91.41,-72.117,-33.092,-14.508,-0.6603459108842411,-0.2195519396579278,0.49807708639259785,0.5173581349332048,26.7,13113,100,1.643,68.39072792079173
2025-05-21 22:29:05.471,WT901BLE68(4F145CEDD531),0.435,0.802,0.428,-4.028,-2.747,0.0,63.14,-25.51,-92.01,-72.117,-33.092,-14.508,-0.6603459108842411,-0.2195519396579278,0.49807708639259785,0.5173581349332048,26.7,13113,100,1.699,68.39072792079173
2025-05-21 22:29:05.561,WT901BLE68(4F145CEDD531),0.434,0.811,0.434,-4.333,0.61,-2.014,62.66,-25.43,-92.1,-73.042,-32.492,-14.392,-0.6603459108842411,-0.2195519396579278,0.49807708639259785,0.5173581349332048,26.7,13113,100,1.699,68.39072792079173
2025-05-21 22:29:05.673,WT901BLE68(4F145CEDD531),0.421,0.799,0.438,-1.282,3.052,-0.122,62.22,-25.29,-91.96,-73.042,-32.492,-14.392,-0.6603459108842411,-0.2195519396579278,0.49807708639259785,0.5173581349332048,26.7,13113,100,1.699,68.39072792079173
2025-05-21 22:29:05.765,WT901BLE68(4F145CEDD531),0.439,0.813,0.436,-0.549,-0.244,-0.366,62.12,-25.05,-91.91,-73.042,-32.492,-14.392,-0.6603459108842411,-0.2195519396579278,0.49807708639259785,0.5173581349332048,26.7,13113,100,1.699,68.39072792079173
2025-05-21 22:29:05.875,WT901BLE68(4F145CEDD531),0.433,0.8,0.435,1.221,1.038,0.793,62.05,-25.07,-91.94,-73.042,-32.492,-14.392,-0.6617744023762054,-0.21598122779519008,0.49102552598712007,0.5237372265065472,26.7,13113,100,1.699,69.01626860375454
2025-05-21 22:29:05.968,WT901BLE68(4F145CEDD531),0.437,0.806,0.438,0.061,-0.427,-0.061,62.11,-25.13,-91.87,-73.042,-32.492,-14.392,-0.6617744023762054,-0.21598122779519008,0.49102552598712007,0.5237372265065472,26.7,13113,100,1.7,69.01626860375454
2025-05-21 22:29:06.780,WT901BLE68(4F145CEDD531),0.434,0.805,0.435,0.732,-0.366,0.671,62.11,-25.18,-91.97,-72.733,-31.7,-14.683,-0.6617744023762054,-0.21598122779519008,0.49102552598712007,0.5237372265065472,26.7,13113,100,1.7,69.01626860375454
2025-05-21 22:29:06.170,WT901BLE68(4F145CEDD531),0.436,0.801,0.436,1.892,-1.282,0.061,62.2,-25.29,-92.04,-72.733,-31.7,-14.683,-0.6617744023762054,-0.21598122779519008,0.49102552598712007,0.5237372265065472,26.7,13113,100,1.7,69.01626860375454
2025-05-21 22:29:06.291,WT901BLE68(4F145CEDD531),0.425,0.811,0.43,1.892,-2.075,-1.099,62.41,-25.34,-92.29,-72.733,-31.7,-14.683,-0.6601043670725102,-0.2149544475631993,0.49451323732693214,0.5229851509871364,26.7,13113,100,1.735,68.86527121344152
2025-05-21 22:29:06.371,WT901BLE68(4F145CEDD531),0.398,0.802,0.424,4.883,0.305,-2.38,62.75,-25.29,-92.43,-72.733,-31.7,-14.683,-0.6601043670725102,-0.2149544475631993,0.49451323732693214,0.5229851509871364,26.7,13113,100,1.735,68.86527121344152
2025-05-21 22:29:06.505,WT901BLE68(4F145CEDD531),0.385,0.803,0.423,16.541,-3.845,-12.268,63.93,-24.7,-92.89,-72.633,-33.35,-12.767,-0.6601043670725102,-0.2149544475631993,0.49451323732693214,0.5229851509871364,26.7,13113,100,1.735,68.86527121344152
2025-05-21 22:29:06.576,WT901BLE68(4F145CEDD531),0.383,0.847,0.384,21.423,-5.249,-17.456,66.26,-23.41,-94.28,-72.633,-33.35,-12.767,-0.6601043670725102,-0.2149544475631993,0.49451323732693214,0.5229851509871364,26.7,13113,100,1.735,68.86527121344152
2025-05-21 22:29:06.690,WT901BLE68(4F145CEDD531),0.353,0.874,0.361,20.63,-4.456,-12.695,68.47,-22.26,-95.45,-72.633,-33.35,-12.767,-0.6260479977903547,-0.25318536700784994,0.5158113070083692,0.5271619959349367,26.7,13113,100,1.735,71.57912059972006
2025-05-21 22:29:06.776,WT901BLE68(4F145CEDD531),0.342,0.885,0.329,16.907,-10.803,-11.719,70.55,-21.42,-96.76,-72.633,-33.35,-12.767,-0.6260479977903547,-0.25318536700784994,0.5158113070083692,0.5271619959349367,26.7,13113,100,1.735,71.57912059972006
2025-05-21 22:29:06.896,WT901BLE68(4F145CEDD531),0.318,0.9,0.281,26.428,-12.451,-12.695,73.02,-20.63,-98.31,-70.275,-41.558,-6.017,-0.6260479977903547,-0.25318536700784994,0.5158113070083692,0.5271619959349367,26.7,13113,100,1.736,71.57912059972006
2025-05-21 22:29:06.979,WT901BLE68(4F145CEDD531),0.278,0.92,0.221,23.254,-21.484,-7.629,75.68,-20.06,-100.14,-70.275,-41.558,-6.017,-0.6260479977903547,-0.25318536700784994,0.5158113070083692,0.5271619959349367,26.7,13113,100,1.736,71.57912059972006
2025-05-21 22:29:07.930,WT901BLE68(4F145CEDD531),0.341,0.911,0.173,23.438,-28.625,-11.475,79.11,-19.63,-103.17,-70.275,-41.558,-6.017,-0.5558806980528677,-0.28709585463167625,0.5744017208610698,0.5278591505860307,26.7,13113,100,1.78,73.86620085287838
2025-05-21 22:29:07.194,WT901BLE68(4F145CEDD531),0.333,1.0,0.102,19.287,-23.56,-10.071,82.03,-18.74,-105.69,-70.275,-41.558,-6.017,-0.5558806980528677,-0.28709585463167625,0.5744017208610698,0.5278591505860307,26.7,13113,100,1.78,73.86620085287838
2025-05-21 22:29:07.305,WT901BLE68(4F145CEDD531),0.312,0.978,0.059,2.38,-9.399,-4.395,83.68,-18.23,-107.33,-69.208,-46.617,6.183,-0.5558806980528677,-0.28709585463167625,0.5744017208610698,0.5278591505860307,26.7,13113,100,1.78,73.86620085287838
2025-05-21 22:29:07.393,WT901BLE68(4F145CEDD531),0.311,0.935,0.064,-4.028,-2.502,0.0,83.69,-18.03,-107.64,-69.208,-46.617,6.183,-0.5558806980528677,-0.28709585463167625,0.5744017208610698,0.5278591505860307,26.7,13113,100,1.781,73.86620085287838
2025-05-21 22:29:07.498,WT901BLE68(4F145CEDD531),0.319,0.923,0.067,-2.686,-4.456,0.305,83.52,-18.09,-107.59,-69.208,-46.617,6.183,-0.5196173746839976,-0.2938054783741251,0.6001016147859397,0.5324980532689009,26.7,13113,100,1.781,74.91520242793888
2025-05-21 22:29:07.565,WT901BLE68(4F145CEDD531),0.306,0.96,0.076,1.953,-4.7,-0.061,83.82,-18.13,-107.83,-69.208,-46.617,6.183,-0.5196173746839976,-0.2938054783741251,0.6001016147859397,0.5324980532689009,26.7,13113,100,1.781,74.91520242793888
2025-05-21 22:29:07.697,WT901BLE68(4F145CEDD531),0.31,0.952,0.083,1.282,-0.793,-0.183,84.16,-18.13,-107.77,-68.833,-47.517,8.208,-0.5196173746839976,-0.2938054783741251,0.6001016147859397,0.5324980532689009,26.7,13113,100,1.781,74.91520242793888
2025-05-21 22:29:07.769,WT901BLE68(4F145CEDD531),0.307,0.952,0.072,1.038,2.38,-0.305,84.26,-18.13,-107.39,-68.833,-47.517,8.208,-0.5196173746839976,-0.2938054783741251,0.6001016147859397,0.5324980532689009,26.7,13113,100,1.781,74.91520242793888
2025-05-21 22:29:07.901,WT901BLE68(4F145CEDD531),0.312,0.952,0.065,1.038,3.296,0.549,84.42,-18.11,-106.81,-68.833,-47.517,8.208,-0.5212446420797094,-0.30214008032294437,0.6020600130941975,0.5239648228637636,26.7,13113,100,1.821,74.43422295644747
2025-05-21 22:29:07.969,WT901BLE68(4F145CEDD531),0.335,0.957,0.07,-4.944,7.263,3.418,84.02,-18.21,-105.93,-68.833,-47.517,8.208,-0.5212446420797094,-0.30214008032294437,0.6020600130941975,0.5239648228637636,26.7,13113,100,1.821,74.43422295644747
2025-05-21 22:29:08.105,WT901BLE68(4F145CEDD531),0.317,0.97,0.101,-14.099,20.569,10.376,82.61,-18.68,-104.23,-69.008,-46.858,5.475,-0.5212446420797094,-0.30214008032294437,0.6020600130941975,0.5239648228637636,26.7,13113,100,1.821,74.43422295644747
2025-05-21 22:29:08.173,WT901BLE68(4F145CEDD531),0.333,0.926,0.145,-17.395,17.212,12.695,80.41,-19.45,-101.76,-69.008,-46.858,5.475,-0.5212446420797094,-0.30214008032294437,0.6020600130941975,0.5239648228637636,26.7,13113,100,1.821,74.43422295644747
2025-05-21 22:29:08.305,WT901BLE68(4F145CEDD531),0.36,0.921,0.2,-20.691,6.348,6.47,78.35,-19.92,-100.43,-69.008,-46.858,5.475,-0.5737112809010793,-0.2941211632349737,0.5628805015816818,0.5172172159192918,26.7,13113,100,1.821,73.02477382276129
2025-05-21 22:29:08.375,WT901BLE68(4F145CEDD531),0.387,0.924,0.26,-26.123,7.996,16.846,75.56,-20.93,-98.89,-69.008,-46.858,5.475,-0.5737112809010793,-0.2941211632349737,0.5628805015816818,0.5172172159192918,26.7,13113,100,1.821,73.02477382276129
2025-05-21 22:29:08.530,WT901BLE68(4F145CEDD531),0.402,0.89,0.29,-25.146,0.122,11.841,72.67,-22.35,-97.96,-71.3,-40.425,-4.225,-0.5737112809010793,-0.2941211632349737,0.5628805015816818,0.5172172159192918,26.7,13113,100,1.821,73.02477382276129
2025-05-21 22:29:08.576,WT901BLE68(4F145CEDD531),0.375,0.849,0.329,-24.841,7.507,4.272,70.24,-22.94,-97.27,-71.3,-40.425,-4.225,-0.5737112809010793,-0.2941211632349737,0.5628805015816818,0.5172172159192918,26.7,13113,100,1.822,73.02477382276129
2025-05-21 22:29:08.733,WT901BLE68(4F145CEDD531),0.363,0.833,0.372,-24.17,9.46,3.967,67.53,-22.92,-96.21,-71.3,-40.425,-4.225,-0.6279316137303336,-0.23939205238854475,0.5134858518649101,0.5335968643702724,26.7,13113,100,1.845,71.58293339447272
2025-05-21 22:29:08.780,WT901BLE68(4F145CEDD531),0.358,0.82,0.421,-18.066,10.986,-6.348,65.16,-22.44,-95.15,-71.3,-40.425,-4.225,-0.6279316137303336,-0.23939205238854475,0.5134858518649101,0.5335968643702724,26.7,13113,100,1.845,71.58293339447272
2025-05-21 22:29:08.915,WT901BLE68(4F145CEDD531),0.348,0.837,0.445,-12.512,5.615,-6.287,63.39,-21.38,-94.63,-70.625,-35.825,-13.317,-0.6279316137303336,-0.23939205238854475,0.5134858518649101,0.5335968643702724,26.7,13113,100,1.845,71.58293339447272
2025-05-21 22:29:08.981,WT901BLE68(4F145CEDD531),0.364,0.801,0.473,-4.822,-2.38,-1.526,62.52,-20.99,-94.66,-70.625,-35.825,-13.317,-0.6279316137303336,-0.23939205238854475,0.5134858518649101,0.5335968643702724,26.7,13113,100,1.845,71.58293339447272
2025-05-21 22:29:09.117,WT901BLE68(4F145CEDD531),0.35,0.846,0.462,-1.953,-3.479,-2.502,62.35,-20.99,-95.23,-70.625,-35.825,-13.317,-0.6364463205139125,-0.22767299276912262,0.48101745054915346,0.5583218621324495,26.7,13113,100,1.845,74.16408096021391
2025-05-21 22:29:09.193,WT901BLE68(4F145CEDD531),0.359,0.846,0.456,-3.784,-1.77,0.122,62.15,-20.96,-95.51,-70.625,-35.825,-13.317,-0.6364463205139125,-0.22767299276912262,0.48101745054915346,0.5583218621324495,26.7,13113,100,1.845,74.16408096021391
2025-05-21 22:29:09.299,WT901BLE68(4F145CEDD531),0.365,0.829,0.47,-4.395,-2.686,-0.671,61.69,-21.07,-95.63,-70.583,-35.233,-14.417,-0.6364463205139125,-0.22767299276912262,0.48101745054915346,0.5583218621324495,26.7,13113,100,1.846,74.16408096021391
2025-05-21 22:29:09.395,WT901BLE68(4F145CEDD531),0.354,0.833,0.451,-5.92,-0.305,-0.977,61.23,-21.13,-95.83,-70.583,-35.233,-14.417,-0.6364463205139125,-0.22767299276912262,0.48101745054915346,0.5583218621324495,26.7,13113,100,1.846,74.16408096021391
2025-05-21 22:29:09.498,WT901BLE68(4F145CEDD531),0.358,0.817,0.466,-0.854,0.0,-1.892,60.91,-21.07,-95.82,-70.583,-35.233,-14.417,-0.6367704139950006,-0.2171471918437217,0.47534763393008506,0.5669348850195155,26.7,13113,100,1.897,74.75993805368822
2025-05-21 22:29:09.595,WT901BLE68(4F145CEDD531),0.366,0.831,0.459,-1.343,-1.526,-1.587,60.86,-20.95,-95.93,-70.583,-35.233,-14.417,-0.6367704139950006,-0.2171471918437217,0.47534763393008506,0.5669348850195155,26.7,13113,100,1.898,74.75993805368822
2025-05-21 22:29:09.699,WT901BLE68(4F145CEDD531),0.362,0.828,0.46,-1.038,-0.854,0.0,60.83,-20.99,-96.06,-70.483,-35.083,-14.767,-0.6367704139950006,-0.2171471918437217,0.47534763393008506,0.5669348850195155,26.7,13113,100,1.898,74.75993805368822
2025-05-21 22:29:09.792,WT901BLE68(4F145CEDD531),0.363,0.822,0.464,-1.953,-0.427,-0.061,60.69,-21.02,-96.04,-70.483,-35.083,-14.767,-0.6367704139950006,-0.2171471918437217,0.47534763393008506,0.5669348850195155,26.7,13113,100,1.898,74.75993805368822
2025-05-21 22:29:09.902,WT901BLE68(4F145CEDD531),0.363,0.823,0.467,0.061,0.183,-0.488,60.68,-20.97,-96.08,-70.483,-35.083,-14.767,-0.6358113336898604,-0.2154040032770641,0.4743608378959553,0.569497022638734,26.7,13113,100,1.898,75.0160465296444
2025-05-21 22:29:10.000,WT901BLE68(4F145CEDD531),0.363,0.825,0.465,0.488,1.587,0.854,60.72,-20.93,-95.93,-70.483,-35.083,-14.767,-0.6358113336898604,-0.2154040032770641,0.4743608378959553,0.569497022638734,26.7,13113,100,1.898,75.0160465296444
2025-05-21 22:29:10.105,WT901BLE68(4F145CEDD531),0.358,0.823,0.469,0.244,1.587,1.16,60.68,-20.95,-95.65,-69.783,-34.267,-15.2,-0.6358113336898604,-0.2154040032770641,0.4743608378959553,0.569497022638734,26.7,13113,100,1.898,75.0160465296444
2025-05-21 22:29:10.199,WT901BLE68(4F145CEDD531),0.358,0.829,0.463,0.549,1.404,0.854,60.67,-20.93,-95.43,-69.783,-34.267,-15.2,-0.6358113336898604,-0.2154040032770641,0.4743608378959553,0.569497022638734,26.7,13113,100,1.898,75.0160465296444
2025-05-21 22:29:10.308,WT901BLE68(4F145CEDD531),0.357,0.829,0.465,0.732,0.793,0.854,60.7,-20.95,-95.21,-69.783,-34.267,-15.2,-0.640150698266217,-0.2192239373965997,0.4726900517762731,0.5645458916096642,26.7,13113,100,1.937,74.54641818611655
2025-05-21 22:29:10.400,WT901BLE68(4F145CEDD531),0.357,0.828,0.466,0.366,-0.427,0.732,60.72,-21.0,-95.11,-69.783,-34.267,-15.2,-0.640150698266217,-0.2192239373965997,0.4726900517762731,0.5645458916096642,26.7,13113,100,1.937,74.54641818611655
2025-05-21 22:29:10.511,WT901BLE68(4F145CEDD531),0.364,0.827,0.47,0.427,-0.916,0.244,60.77,-21.02,-95.11,-70.417,-34.883,-15.125,-0.640150698266217,-0.2192239373965997,0.4726900517762731,0.5645458916096642,26.7,13113,100,1.937,74.54641818611655
2025-05-21 22:29:10.602,WT901BLE68(4F145CEDD531),0.367,0.827,0.467,0.0,-1.099,-0.61,60.8,-21.01,-95.18,-70.417,-34.883,-15.125,-0.640150698266217,-0.2192239373965997,0.4726900517762731,0.5645458916096642,26.7,13113,100,1.938,74.54641818611655
2025-05-21 22:29:10.711,WT901BLE68(4F145CEDD531),0.372,0.834,0.455,-1.038,2.563,0.305,60.72,-20.97,-95.1,-70.417,-34.883,-15.125,-0.641795549140491,-0.2197755977859202,0.47153346539889596,0.5634299874254167,26.7,13113,100,1.938,74.42552724714058
2025-05-21 22:29:10.805,WT901BLE68(4F145CEDD531),0.369,0.836,0.464,-8.423,7.996,6.226,60.23,-21.0,-94.44,-70.417,-34.883,-15.125,-0.641795549140491,-0.2197755977859202,0.47153346539889596,0.5634299874254167,26.7,13113,100,1.938,74.42552724714058
2025-05-21 22:29:10.916,WT901BLE68(4F145CEDD531),0.352,0.795,0.5,-8.301,11.169,6.897,58.92,-21.17,-93.02,-70.483,-33.042,-16.4,-0.641795549140491,-0.2197755977859202,0.47153346539889596,0.5634299874254167,26.7,13113,100,1.938,74.42552724714058
2025-05-21 22:29:11.600,WT901BLE68(4F145CEDD531),0.37,0.782,0.533,-4.7,7.69,4.761,57.85,-21.04,-91.88,-70.483,-33.042,-16.4,-0.641795549140491,-0.2197755977859202,0.47153346539889596,0.5634299874254167,26.7,13113,100,1.938,74.42552724714058
2025-05-21 22:29:11.119,WT901BLE68(4F145CEDD531),0.369,0.78,0.533,-1.404,3.662,8.179,57.04,-21.24,-90.9,-70.483,-33.042,-16.4,-0.6711513019085024,-0.21238306981911856,0.44741753357995695,0.5516039450964412,26.7,13113,100,1.998,72.46712091415587
2025-05-21 22:29:11.210,WT901BLE68(4F145CEDD531),0.372,0.757,0.557,-4.333,2.563,7.019,56.47,-21.68,-90.25,-70.483,-33.042,-16.4,-0.6711513019085024,-0.21238306981911856,0.44741753357995695,0.5516039450964412,26.7,13113,100,1.998,72.46712091415587
2025-05-21 22:29:11.320,WT901BLE68(4F145CEDD531),0.379,0.757,0.571,-10.071,-0.122,3.235,55.63,-21.92,-89.92,-69.775,-29.725,-19.9,-0.6711513019085024,-0.21238306981911856,0.44741753357995695,0.5516039450964412,26.7,13113,100,1.998,72.46712091415587
2025-05-21 22:29:11.410,WT901BLE68(4F145CEDD531),0.376,0.763,0.562,-12.756,5.31,2.93,54.12,-22.06,-89.7,-69.775,-29.725,-19.9,-0.6711513019085024,-0.21238306981911856,0.44741753357995695,0.5516039450964412,26.7,13113,100,1.999,72.46712091415587
2025-05-21 22:29:11.522,WT901BLE68(4F145CEDD531),0.373,0.745,0.578,-9.949,7.385,2.197,52.75,-21.85,-89.12,-69.775,-29.725,-19.9,-0.6886143753958536,-0.18995224082183138,0.42299725861014015,0.5574959259162794,26.7,13113,100,1.999,72.16764784641815
2025-05-21 22:29:11.613,WT901BLE68(4F145CEDD531),0.366,0.734,0.599,-7.202,7.202,1.587,51.58,-21.67,-88.3,-69.775,-29.725,-19.9,-0.6886143753958536,-0.18995224082183138,0.42299725861014015,0.5574959259162794,26.7,13113,100,1.999,72.16764784641815
2025-05-21 22:29:11.725,WT901BLE68(4F145CEDD531),0.367,0.736,0.604,-5.005,3.357,-0.854,50.83,-21.41,-87.81,-69.308,-26.508,-23.433,-0.6886143753958536,-0.18995224082183138,0.42299725861014015,0.5574959259162794,26.7,13113,100,1.999,72.16764784641815
2025-05-21 22:29:11.800,WT901BLE68(4F145CEDD531),0.359,0.716,0.624,-2.014,0.916,-1.16,50.37,-21.25,-87.67,-69.308,-26.508,-23.433,-0.6886143753958536,-0.18995224082183138,0.42299725861014015,0.5574959259162794,26.7,13113,100,1.999,72.16764784641815
2025-05-21 22:29:11.930,WT901BLE68(4F145CEDD531),0.351,0.727,0.623,-0.854,-1.587,-2.197,50.29,-21.08,-87.89,-69.308,-26.508,-23.433,-0.6939421725294574,-0.185708609817873,0.408618944381168,0.5630161025383107,26.7,13113,100,2.024,72.7194731952975
2025-05-21 22:29:11.994,WT901BLE68(4F145CEDD531),0.334,0.721,0.617,2.258,-0.183,-2.747,50.29,-20.86,-88.12,-69.308,-26.508,-23.433,-0.6939421725294574,-0.185708609817873,0.408618944381168,0.5630161025383107,26.7,13113,100,2.024,72.7194731952975
2025-05-21 22:29:12.132,WT901BLE68(4F145CEDD531),0.369,0.729,0.603,14.221,-4.333,-6.775,51.22,-20.64,-88.7,-68.483,-28.225,-22.092,-0.6939421725294574,-0.185708609817873,0.408618944381168,0.5630161025383107,26.7,13113,100,2.024,72.7194731952975
2025-05-21 22:29:12.204,WT901BLE68(4F145CEDD531),0.349,0.772,0.571,17.334,-7.385,-6.958,53.02,-20.45,-89.74,-68.483,-28.225,-22.092,-0.6939421725294574,-0.185708609817873,0.408618944381168,0.5630161025383107,26.7,13113,100,2.024,72.7194731952975
2025-05-21 22:29:12.335,WT901BLE68(4F145CEDD531),0.364,0.779,0.541,23.193,-8.24,3.662,55.34,-20.58,-90.56,-68.483,-28.225,-22.092,-0.666455184027498,-0.21318445338326522,0.44690029874456877,0.557377788847535,26.7,13113,100,2.024,73.27581619590352
2025-05-21 22:29:12.402,WT901BLE68(4F145CEDD531),0.358,0.8,0.508,26.794,-12.878,-8.301,58.33,-21.02,-92.13,-68.483,-28.225,-22.092,-0.666455184027498,-0.21318445338326522,0.44690029874456877,0.557377788847535,26.7,13113,100,2.024,73.27581619590352
2025-05-21 22:29:12.537,WT901BLE68(4F145CEDD531),0.346,0.813,0.457,22.644,-9.949,-12.878,61.23,-20.54,-93.89,-69.492,-35.933,-14.483,-0.666455184027498,-0.21318445338326522,0.44690029874456877,0.557377788847535,26.7,13113,100,2.024,73.27581619590352
2025-05-21 22:29:12.649,WT901BLE68(4F145CEDD531),0.353,0.878,0.412,18.372,-12.756,-12.024,63.76,-19.84,-95.78,-69.492,-35.933,-14.483,-0.666455184027498,-0.21318445338326522,0.44690029874456877,0.557377788847535,26.7,13113,100,2.024,73.27581619590352
2025-05-21 22:29:12.761,WT901BLE68(4F145CEDD531),0.324,0.872,0.381,13.977,-8.972,-2.808,65.63,-19.8,-97.08,-69.492,-35.933,-14.483,-0.6135697685862138,-0.2481260823169617,0.5014625023424857,0.5572261166667521,26.7,13113,100,2.049,75.17515324126087
2025-05-21 22:29:12.804,WT901BLE68(4F145CEDD531),0.317,0.869,0.375,11.841,-6.042,-5.188,67.14,-19.74,-97.84,-69.492,-35.933,-14.483,-0.6135697685862138,-0.2481260823169617,0.5014625023424857,0.5572261166667521,26.7,13113,100,2.049,75.17515324126087
2025-05-21 22:29:12.941,WT901BLE68(4F145CEDD531),0.314,0.875,0.337,18.799,-8.972,-9.399,68.98,-19.28,-98.93,-69.2,-41.75,-6.217,-0.6135697685862138,-0.2481260823169617,0.5014625023424857,0.5572261166667521,26.7,13113,100,2.049,75.17515324126087
2025-05-21 22:29:13.700,WT901BLE68(4F145CEDD531),0.334,0.879,0.307,38.757,-13.306,-11.108,72.45,-18.69,-100.52,-69.2,-41.75,-6.217,-0.6135697685862138,-0.2481260823169617,0.5014625023424857,0.5572261166667521,26.7,13113,100,2.049,75.17515324126087
2025-05-21 22:29:13.143,WT901BLE68(4F145CEDD531),0.338,0.961,0.201,30.09,-11.841,-3.418,76.39,-18.36,-102.26,-69.2,-41.75,-6.217,-0.5593682250904665,-0.2886897279546331,0.5619584020932811,0.5366266710194222,26.7,13113,100,2.049,75.08533602508042
2025-05-21 22:29:13.212,WT901BLE68(4F145CEDD531),0.327,0.993,0.186,5.432,-1.709,6.409,78.02,-18.84,-102.69,-69.2,-41.75,-6.217,-0.5593682250904665,-0.2886897279546331,0.5619584020932811,0.5366266710194222,26.7,13113,100,2.049,75.08533602508042
2025-05-21 22:29:13.345,WT901BLE68(4F145CEDD531),0.326,0.925,0.199,-7.324,3.052,3.906,77.58,-19.27,-102.4,-69.825,-44.858,0.817,-0.5593682250904665,-0.2886897279546331,0.5619584020932811,0.5366266710194222,26.7,13113,100,2.049,75.08533602508042
2025-05-21 22:29:13.413,WT901BLE68(4F145CEDD531),0.332,0.925,0.208,-6.592,5.188,4.7,76.6,-19.54,-101.73,-69.825,-44.858,0.817,-0.5593682250904665,-0.2886897279546331,0.5619584020932811,0.5366266710194222,26.7,13113,100,2.05,75.08533602508042
2025-05-21 22:29:13.528,WT901BLE68(4F145CEDD531),0.329,0.916,0.209,-3.296,3.357,2.014,75.98,-19.73,-101.2,-69.825,-44.858,0.817,-0.5759414225631613,-0.2808702006022987,0.553199786950926,0.5323282858415439,26.7,13113,100,2.099,74.00955458289019
2025-05-21 22:29:13.617,WT901BLE68(4F145CEDD531),0.343,0.923,0.223,0.061,-0.305,0.61,75.86,-19.77,-100.87,-69.825,-44.858,0.817,-0.5759414225631613,-0.2808702006022987,0.553199786950926,0.5323282858415439,26.7,13113,100,2.1,74.00955458289019
2025-05-21 22:29:13.728,WT901BLE68(4F145CEDD531),0.351,0.933,0.226,-3.357,-1.16,1.587,75.83,-19.82,-100.87,-70.075,-43.417,-1.158,-0.5759414225631613,-0.2808702006022987,0.553199786950926,0.5323282858415439,26.7,13113,100,2.1,74.00955458289019
2025-05-21 22:29:13.819,WT901BLE68(4F145CEDD531),0.346,0.923,0.236,-8.85,1.587,3.479,75.28,-20.08,-100.76,-70.075,-43.417,-1.158,-0.5759414225631613,-0.2808702006022987,0.553199786950926,0.5323282858415439,26.7,13113,100,2.1,74.00955458289019
2025-05-21 22:29:13.933,WT901BLE68(4F145CEDD531),0.335,0.905,0.253,-4.089,2.38,0.366,74.54,-20.19,-100.42,-70.075,-43.417,-1.158,-0.5841750805916581,-0.27366643408071223,0.546112794894191,0.534422092849961,26.7,13113,100,2.1,73.79950400406315
2025-05-21 22:29:14.210,WT901BLE68(4F145CEDD531),0.354,0.916,0.25,-1.892,-1.892,0.0,74.26,-20.22,-100.32,-70.075,-43.417,-1.158,-0.5841750805916581,-0.27366643408071223,0.546112794894191,0.534422092849961,26.7,13113,100,2.1,73.79950400406315
2025-05-21 22:29:14.134,WT901BLE68(4F145CEDD531),0.354,0.912,0.254,-1.038,-2.991,1.038,74.22,-20.37,-100.54,-70.183,-42.592,-3.175,-0.5841750805916581,-0.27366643408071223,0.546112794894191,0.534422092849961,26.7,13113,100,2.1,73.79950400406315
2025-05-21 22:29:14.225,WT901BLE68(4F145CEDD531),0.348,0.915,0.253,-2.319,0.793,1.831,74.14,-20.5,-100.51,-70.183,-42.592,-3.175,-0.5841750805916581,-0.27366643408071223,0.546112794894191,0.534422092849961,26.7,13113,100,2.1,73.79950400406315
2025-05-21 22:29:14.337,WT901BLE68(4F145CEDD531),0.346,0.908,0.261,-3.479,2.258,1.587,73.77,-20.63,-100.15,-70.183,-42.592,-3.175,-0.5891228614255984,-0.2686995491407445,0.5432795261099376,0.5343988800016682,26.7,13113,100,2.139,73.47481490975201
2025-05-21 22:29:14.426,WT901BLE68(4F145CEDD531),0.345,0.901,0.263,-2.38,1.343,0.671,73.43,-20.67,-99.84,-70.183,-42.592,-3.175,-0.5891228614255984,-0.2686995491407445,0.5432795261099376,0.5343988800016682,26.7,13113,100,2.14,73.47481490975201
2025-05-21 22:29:14.541,WT901BLE68(4F145CEDD531),0.352,0.903,0.266,-0.854,-1.16,0.427,73.28,-20.65,-99.74,-70.633,-41.625,-4.4,-0.5891228614255984,-0.2686995491407445,0.5432795261099376,0.5343988800016682,26.7,13113,100,2.14,73.47481490975201
2025-05-21 22:29:14.628,WT901BLE68(4F145CEDD531),0.358,0.904,0.269,-0.061,-2.258,-0.244,73.35,-20.68,-99.84,-70.633,-41.625,-4.4,-0.5891228614255984,-0.2686995491407445,0.5432795261099376,0.5343988800016682,26.7,13113,100,2.14,73.47481490975201
2025-05-21 22:29:14.741,WT901BLE68(4F145CEDD531),0.358,0.904,0.271,1.343,-0.916,-0.793,73.51,-20.67,-100.0,-70.633,-41.625,-4.4,-0.5883813512351858,-0.2687543202701518,0.5438789799766393,0.5345784844102465,26.7,13113,100,2.14,73.50128034126948
2025-05-21 22:29:14.831,WT901BLE68(4F145CEDD531),0.357,0.904,0.276,1.404,-0.549,-0.854,73.65,-20.63,-100.06,-70.633,-41.625,-4.4,-0.5883813512351858,-0.2687543202701518,0.5438789799766393,0.5345784844102465,26.7,13113,100,2.14,73.50128034126948
2025-05-21 22:29:14.944,WT901BLE68(4F145CEDD531),0.353,0.911,0.274,-0.366,-0.488,-0.427,73.71,-20.59,-100.13,-71.158,-42.117,-2.608,-0.5883813512351858,-0.2687543202701518,0.5438789799766393,0.5345784844102465,26.7,13113,100,2.14,73.50128034126948
2025-05-21 22:29:15.340,WT901BLE68(4F145CEDD531),0.339,0.909,0.28,-0.671,-0.122,-1.16,73.62,-20.55,-100.2,-71.158,-42.117,-2.608,-0.5883813512351858,-0.2687543202701518,0.5438789799766393,0.5345784844102465,26.7,13113,100,2.14,73.50128034126948
2025-05-21 22:29:15.146,WT901BLE68(4F145CEDD531),0.333,0.906,0.242,2.563,-4.944,-1.709,74.04,-20.47,-100.6,-71.158,-42.117,-2.608,-0.5813623321152371,-0.26979500448634797,0.5496205668161168,0.5358598015194597,26.7,13113,100,2.195,73.73204484971885
2025-05-21 22:29:15.235,WT901BLE68(4F145CEDD531),0.355,0.902,0.229,9.949,-7.019,-0.488,74.86,-20.5,-101.19,-71.158,-42.117,-2.608,-0.5813623321152371,-0.26979500448634797,0.5496205668161168,0.5358598015194597,26.7,13113,100,2.195,73.73204484971885
2025-05-21 22:29:15.348,WT901BLE68(4F145CEDD531),0.36,0.935,0.214,2.991,-6.714,0.977,75.64,-20.75,-101.84,-71.225,-42.567,-1.017,-0.5813623321152371,-0.26979500448634797,0.5496205668161168,0.5358598015194597,26.7,13113,100,2.195,73.73204484971885
2025-05-21 22:29:15.439,WT901BLE68(4F145CEDD531),0.351,0.913,0.202,3.967,-2.93,1.465,76.15,-21.02,-102.12,-71.225,-42.567,-1.017,-0.5813623321152371,-0.26979500448634797,0.5496205668161168,0.5358598015194597,26.7,13113,100,2.196,73.73204484971885
2025-05-21 22:29:15.552,WT901BLE68(4F145CEDD531),0.349,0.909,0.19,5.188,-0.244,0.183,76.69,-21.12,-102.05,-71.225,-42.567,-1.017,-0.5722759825544197,-0.2741872398590544,0.5676056889039774,0.5245429812834104,26.7,13113,100,2.196,72.58131089533798
2025-05-21 22:29:15.640,WT901BLE68(4F145CEDD531),0.348,0.902,0.191,10.437,-3.723,0.366,77.62,-21.26,-102.14,-71.225,-42.567,-1.017,-0.5722759825544197,-0.2741872398590544,0.5676056889039774,0.5245429812834104,26.7,13113,100,2.196,72.58131089533798
2025-05-21 22:29:15.754,WT901BLE68(4F145CEDD531),0.344,0.917,0.178,14.526,-8.118,-4.761,79.04,-21.06,-102.82,-71.308,-44.175,3.275,-0.5722759825544197,-0.2741872398590544,0.5676056889039774,0.5245429812834104,26.7,13113,100,2.196,72.58131089533798
2025-05-21 22:29:15.843,WT901BLE68(4F145CEDD531),0.377,0.908,0.15,21.667,-17.395,-7.813,81.39,-20.59,-104.3,-71.308,-44.175,3.275,-0.5722759825544197,-0.2741872398590544,0.5676056889039774,0.5245429812834104,26.7,13113,100,2.196,72.58131089533798
2025-05-21 22:29:15.956,WT901BLE68(4F145CEDD531),0.352,0.954,0.093,16.541,-15.93,-3.845,84.07,-20.1,-106.29,-71.308,-44.175,3.275,-0.5252388370603203,-0.29283607750805013,0.6128236457078,0.5126581463457132,26.7,13113,100,2.227,72.3706989087279
2025-05-21 22:29:16.230,WT901BLE68(4F145CEDD531),0.359,0.963,0.073,8.911,-5.005,2.441,85.56,-20.15,-107.27,-71.308,-44.175,3.275,-0.5252388370603203,-0.29283607750805013,0.6128236457078,0.5126581463457132,26.7,13113,100,2.227,72.3706989087279
2025-05-21 22:29:16.157,WT901BLE68(4F145CEDD531),0.355,0.941,0.063,2.38,4.333,0.427,86.08,-20.31,-107.23,-70.933,-45.733,10.05,-0.5252388370603203,-0.29283607750805013,0.6128236457078,0.5126581463457132,26.7,13113,100,2.227,72.3706989087279
2025-05-21 22:29:16.224,WT901BLE68(4F145CEDD531),0.345,0.94,0.049,2.014,8.24,-0.671,86.11,-20.28,-106.51,-70.933,-45.733,10.05,-0.5252388370603203,-0.29283607750805013,0.6128236457078,0.5126581463457132,26.7,13113,100,2.228,72.3706989087279
2025-05-21 22:29:16.361,WT901BLE68(4F145CEDD531),0.342,0.932,0.05,4.028,6.592,0.793,86.15,-20.27,-105.57,-70.933,-45.733,10.05,-0.532836812516818,-0.3076654818242883,0.612460819222002,0.4963049742231686,26.7,13113,100,2.228,71.45516452569635
2025-05-21 22:29:16.428,WT901BLE68(4F145CEDD531),0.342,0.94,0.053,3.845,5.31,1.831,86.35,-20.35,-104.85,-70.933,-45.733,10.05,-0.532836812516818,-0.3076654818242883,0.612460819222002,0.4963049742231686,26.7,13113,100,2.228,71.45516452569635
2025-05-21 22:29:16.565,WT901BLE68(4F145CEDD531),0.333,0.94,0.056,2.258,3.845,1.038,86.52,-20.44,-104.29,-71.392,-46.408,9.608,-0.532836812516818,-0.3076654818242883,0.612460819222002,0.4963049742231686,26.7,13113,100,2.228,71.45516452569635
2025-05-21 22:29:16.631,WT901BLE68(4F145CEDD531),0.337,0.936,0.052,1.282,2.075,-0.183,86.64,-20.39,-103.96,-71.392,-46.408,9.608,-0.532836812516818,-0.3076654818242883,0.612460819222002,0.4963049742231686,26.7,13113,100,2.228,71.45516452569635
2025-05-21 22:29:16.766,WT901BLE68(4F145CEDD531),0.34,0.94,0.043,2.93,1.404,-1.709,86.79,-20.21,-103.83,-71.392,-46.408,9.608,-0.5341498729266143,-0.3196278755449622,0.6127342678464326,0.48690723082923304,26.7,13113,100,2.253,71.24520329931886
2025-05-21 22:29:16.834,WT901BLE68(4F145CEDD531),0.33,0.933,0.031,9.277,-0.366,-3.296,87.45,-20.02,-103.88,-71.392,-46.408,9.608,-0.5341498729266143,-0.3196278755449622,0.6127342678464326,0.48690723082923304,26.7,13113,100,2.253,71.24520329931886
2025-05-21 22:29:16.970,WT901BLE68(4F145CEDD531),0.334,0.945,0.028,8.789,2.014,-4.456,88.29,-19.58,-103.8,-70.55,-46.925,11.442,-0.5341498729266143,-0.3196278755449622,0.6127342678464326,0.48690723082923304,26.7,13113,100,2.253,71.24520329931886
2025-05-21 22:29:17.350,WT901BLE68(4F145CEDD531),0.324,0.952,0.023,5.31,6.226,-4.456,88.82,-19.14,-103.35,-70.55,-46.925,11.442,-0.5341498729266143,-0.3196278755449622,0.6127342678464326,0.48690723082923304,26.7,13113,100,2.253,71.24520329931886
2025-05-21 22:29:17.171,WT901BLE68(4F145CEDD531),0.309,0.96,0.004,1.16,7.507,-1.953,88.82,-18.78,-102.64,-70.55,-46.925,11.442,-0.5309167615776469,-0.3429237446220899,0.6100322396676251,0.4779030908211086,26.7,13113,100,2.253,72.05981925287327
2025-05-21 22:29:17.238,WT901BLE68(4F145CEDD531),0.322,0.946,0.003,2.441,4.7,-1.038,88.78,-18.63,-102.16,-70.55,-46.925,11.442,-0.5309167615776469,-0.3429237446220899,0.6100322396676251,0.4779030908211086,26.7,13113,100,2.253,72.05981925287327
2025-05-21 22:29:17.373,WT901BLE68(4F145CEDD531),0.314,0.938,0.004,5.798,6.531,-0.549,89.14,-18.53,-101.72,-69.175,-47.858,11.417,-0.5309167615776469,-0.3429237446220899,0.6100322396676251,0.4779030908211086,26.7,13113,100,2.253,72.05981925287327
2025-05-21 22:29:17.441,WT901BLE68(4F145CEDD531),0.306,0.958,-0.001,4.211,6.958,2.014,89.43,-18.6,-100.98,-69.175,-47.858,11.417,-0.5309167615776469,-0.3429237446220899,0.6100322396676251,0.4779030908211086,26.7,13113,100,2.253,72.05981925287327
2025-05-21 22:29:17.554,WT901BLE68(4F145CEDD531),0.313,0.953,-0.002,-0.732,-0.183,2.502,89.53,-18.79,-100.68,-69.175,-47.858,11.417,-0.5350345181966334,-0.35122265942179,0.6101493642933608,0.4670101295466614,26.7,13113,100,2.297,71.51306739765522
2025-05-21 22:29:17.644,WT901BLE68(4F145CEDD531),0.325,0.946,-0.006,-3.235,-6.104,1.526,89.46,-18.97,-101.11,-69.175,-47.858,11.417,-0.5350345181966334,-0.35122265942179,0.6101493642933608,0.4670101295466614,26.7,13113,100,2.298,71.51306739765522
2025-05-21 22:29:17.755,WT901BLE68(4F145CEDD531),0.331,0.939,0.0,-2.563,-7.507,2.014,89.45,-19.08,-101.83,-69.9,-47.225,10.783,-0.5350345181966334,-0.35122265942179,0.6101493642933608,0.4670101295466614,26.7,13113,100,2.298,71.51306739765522
2025-05-21 22:29:17.845,WT901BLE68(4F145CEDD531),0.333,0.939,0.0,-2.258,-4.578,1.404,89.47,-19.22,-102.47,-69.9,-47.225,10.783,-0.5350345181966334,-0.35122265942179,0.6101493642933608,0.4670101295466614,26.7,13113,100,2.298,71.51306739765522
2025-05-21 22:29:17.960,WT901BLE68(4F145CEDD531),0.333,0.95,0.003,-0.549,-2.991,1.099,89.48,-19.33,-102.79,-69.9,-47.225,10.783,-0.5284940573327941,-0.338575412134257,0.6177081184046782,0.47381156815657377,26.7,13113,100,2.298,71.23190075517506
2025-05-21 22:29:18.500,WT901BLE68(4F145CEDD531),0.338,0.944,-0.0,-0.183,-1.709,0.61,89.54,-19.4,-103.02,-69.9,-47.225,10.783,-0.5284940573327941,-0.338575412134257,0.6177081184046782,0.47381156815657377,26.7,13113,100,2.298,71.23190075517506
2025-05-21 22:29:18.162,WT901BLE68(4F145CEDD531),0.333,0.94,0.0,0.305,-0.122,0.854,89.63,-19.47,-103.09,-69.933,-47.108,11.525,-0.5284940573327941,-0.338575412134257,0.6177081184046782,0.47381156815657377,26.7,13113,100,2.298,71.23190075517506
2025-05-21 22:29:18.252,WT901BLE68(4F145CEDD531),0.336,0.945,-0.001,1.038,1.282,0.0,89.67,-19.5,-102.99,-69.933,-47.108,11.525,-0.5284940573327941,-0.338575412134257,0.6177081184046782,0.47381156815657377,26.7,13113,100,2.298,71.23190075517506
2025-05-21 22:29:18.362,WT901BLE68(4F145CEDD531),0.334,0.94,-0.001,1.953,2.686,0.732,89.75,-19.54,-102.74,-69.933,-47.108,11.525,-0.5302791389613792,-0.34166521770286207,0.6181756264450009,0.46896461344515605,26.7,13113,100,2.341,70.93296681183276
2025-05-21 22:29:18.454,WT901BLE68(4F145CEDD531),0.337,0.942,0.0,2.625,2.38,0.122,89.87,-19.58,-102.49,-69.933,-47.108,11.525,-0.5302791389613792,-0.34166521770286207,0.6181756264450009,0.46896461344515605,26.7,13113,100,2.341,70.93296681183276
2025-05-21 22:29:18.566,WT901BLE68(4F145CEDD531),0.339,0.946,0.0,1.953,1.099,0.793,90.09,-19.62,-102.36,-70.442,-46.983,12.15,-0.5302791389613792,-0.34166521770286207,0.6181756264450009,0.46896461344515605,26.7,13113,100,2.341,70.93296681183276
2025-05-21 22:29:18.657,WT901BLE68(4F145CEDD531),0.34,0.942,-0.002,0.488,1.77,1.099,90.19,-19.73,-102.26,-70.442,-46.983,12.15,-0.5302791389613792,-0.34166521770286207,0.6181756264450009,0.46896461344515605,26.7,13113,100,2.341,70.93296681183276
2025-05-21 22:29:18.770,WT901BLE68(4F145CEDD531),0.339,0.938,-0.005,0.366,1.404,1.282,90.15,-19.86,-102.14,-70.442,-46.983,12.15,-0.5327841310848506,-0.34328199124577347,0.6189696522803314,0.46386971630670504,26.7,13113,100,2.342,70.49040450334309
2025-05-21 22:29:18.857,WT901BLE68(4F145CEDD531),0.326,0.941,-0.012,-0.61,2.686,0.122,90.11,-19.94,-102.05,-70.442,-46.983,12.15,-0.5327841310848506,-0.34328199124577347,0.6189696522803314,0.46386971630670504,26.7,13113,100,2.342,70.49040450334309
2025-05-21 22:29:18.971,WT901BLE68(4F145CEDD531),0.328,0.932,0.0,1.648,2.38,-1.16,89.99,-19.87,-101.81,-70.708,-47.217,11.667,-0.5327841310848506,-0.34328199124577347,0.6189696522803314,0.46386971630670504,26.7,13113,100,2.342,70.49040450334309
2025-05-21 22:29:19.640,WT901BLE68(4F145CEDD531),0.339,0.954,0.017,-0.732,0.366,-1.282,89.89,-19.72,-101.63,-70.708,-47.217,11.667,-0.5327841310848506,-0.34328199124577347,0.6189696522803314,0.46386971630670504,26.7,13113,100,2.342,70.49040450334309
2025-05-21 22:29:19.174,WT901BLE68(4F145CEDD531),0.339,0.963,0.012,-1.953,-3.235,0.977,89.75,-19.65,-101.95,-70.708,-47.217,11.667,-0.5328126215189587,-0.34023083067488447,0.6178078253608753,0.4676186300087276,26.7,13113,100,2.399,70.6613123274999
2025-05-21 22:29:19.264,WT901BLE68(4F145CEDD531),0.366,0.944,0.003,-4.211,-2.808,3.296,89.65,-19.91,-102.36,-70.708,-47.217,11.667,-0.5328126215189587,-0.34023083067488447,0.6178078253608753,0.4676186300087276,26.7,13113,100,2.399,70.6613123274999
2025-05-21 22:29:19.375,WT901BLE68(4F145CEDD531),0.362,0.941,0.028,-6.531,-2.075,3.174,89.27,-20.28,-102.67,-71.283,-45.942,10.4,-0.5328126215189587,-0.34023083067488447,0.6178078253608753,0.4676186300087276,26.7,13113,100,2.399,70.6613123274999
2025-05-21 22:29:19.466,WT901BLE68(4F145CEDD531),0.346,0.94,0.048,-8.484,-1.282,3.723,88.59,-20.6,-102.85,-71.283,-45.942,10.4,-0.5328126215189587,-0.34023083067488447,0.6178078253608753,0.4676186300087276,26.7,13113,100,2.399,70.6613123274999
2025-05-21 22:29:19.578,WT901BLE68(4F145CEDD531),0.376,0.958,0.044,-13.916,1.465,4.456,87.33,-20.93,-102.77,-71.283,-45.942,10.4,-0.5496783668565917,-0.31401620520871426,0.6055312492161672,0.4822648878976126,26.7,13113,100,2.399,70.26752646971221
2025-05-21 22:29:19.669,WT901BLE68(4F145CEDD531),0.381,0.942,0.072,-15.564,11.536,-0.671,85.63,-21.26,-102.23,-71.283,-45.942,10.4,-0.5496783668565917,-0.31401620520871426,0.6055312492161672,0.4822648878976126,26.7,13113,100,2.399,70.26752646971221
2025-05-21 22:29:19.789,WT901BLE68(4F145CEDD531),0.346,0.975,0.092,-13.733,22.949,0.549,83.53,-21.07,-100.17,-71.117,-44.775,3.383,-0.5496783668565917,-0.31401620520871426,0.6055312492161672,0.4822648878976126,26.7,13113,100,2.399,70.26752646971221
2025-05-21 22:29:19.875,WT901BLE68(4F145CEDD531),0.309,0.945,0.119,-16.541,22.461,-8.911,81.31,-20.54,-97.77,-71.117,-44.775,3.383,-0.5496783668565917,-0.31401620520871426,0.6055312492161672,0.4822648878976126,26.7,13113,100,2.399,70.26752646971221
2025-05-21 22:29:19.989,WT901BLE68(4F145CEDD531),0.342,0.907,0.152,-8.972,11.414,-5.798,79.6,-19.18,-96.22,-71.117,-44.775,3.383,-0.5848431012140117,-0.32795856194682543,0.551821232227355,0.4958780659307599,26.7,13113,100,2.803,72.95658471608263
2025-05-21 22:29:20.520,WT901BLE68(4F145CEDD531),0.349,0.937,0.165,-2.991,0.854,-0.061,79.29,-18.67,-96.1,-71.117,-44.775,3.383,-0.5848431012140117,-0.32795856194682543,0.551821232227355,0.4958780659307599,26.7,13113,100,2.803,72.95658471608263
2025-05-21 22:29:20.193,WT901BLE68(4F145CEDD531),0.345,0.943,0.173,-6.287,0.732,2.686,79.27,-19.04,-96.2,-69.325,-44.017,-0.242,-0.5848431012140117,-0.32795856194682543,0.551821232227355,0.4958780659307599,26.7,13113,100,2.803,72.95658471608263
2025-05-21 22:29:20.254,WT901BLE68(4F145CEDD531),0.332,0.954,0.178,-9.949,1.038,4.578,78.35,-19.48,-96.15,-69.325,-44.017,-0.242,-0.5848431012140117,-0.32795856194682543,0.551821232227355,0.4958780659307599,26.7,13113,100,2.903,72.95658471608263
2025-05-21 22:29:20.388,WT901BLE68(4F145CEDD531),0.325,0.919,0.194,-11.597,5.249,-3.601,77.24,-19.46,-95.88,-69.325,-44.017,-0.242,-0.5848431012140117,-0.32795856194682543,0.551821232227355,0.4958780659307599,26.7,13113,100,2.903,72.95658471608263
2025-05-21 22:29:20.456,WT901BLE68(4F145CEDD531),0.323,0.926,0.207,-10.864,3.052,-2.136,76.12,-18.96,-95.66,-69.325,-44.017,-0.242,-0.5966036287427177,-0.31203281849942227,0.5377893277397017,0.5074271073953459,26.7,13113,100,2.903,73.12369327897484
