Time,Device name,Chip Time(),Acceleration X(g),Acceleration Y(g),Acceleration Z(g),Angular velocity X(°/s),Angular velocity Y(°/s),Angular velocity Z(°/s),Angle X(°),Angle Y(°),Angle Z(°),Magnetic field X(ʯt),Magnetic field Y(ʯt),Magnetic field Z(ʯt),Temperature(℃),Quaternions 0(),Quaternions 1(),Quaternions 2(),Quaternions 3()
 08:16:56.535,f7:68:33:b1:9e:f1, 2015-01-01 01:02:58.545, -0.04, -0.817, 0.587, -0.671, 0.061, -0.366, -56.113, 2.137, 57.36, -2.620, 18.813, -137.460, 23.09, -0.77609, 0.40857, 0.20306, -0.43518,
 08:16:56.535,f7:68:33:b1:9e:f1, 2015-01-01 01:02:58.545, -0.04, -0.817, 0.587, -0.671, 0.061, -0.366, -56.118, 2.131, 57.36, -2.620, 18.813, -137.460, 23.09, -0.77609, 0.40857, 0.20306, -0.43518,
 08:16:56.535,f7:68:33:b1:9e:f1, 2015-01-01 01:02:58.545, -0.04, -0.817, 0.587, -0.671, 0.061, -0.366, -56.124, 2.131, 57.36, -2.620, 18.813, -137.460, 23.09, -0.77609, 0.40857, 0.20306, -0.43518,
 08:16:56.535,f7:68:33:b1:9e:f1, 2015-01-01 01:02:58.545, -0.039, -0.817, 0.587, -0.671, 0.061, -0.366, -56.124, 2.131, 57.36, -2.620, 18.813, -137.460, 23.09, -0.77609, 0.40857, 0.20306, -0.43518,
 08:16:56.536,f7:68:33:b1:9e:f1, 2015-01-01 01:02:58.545, -0.039, -0.816, 0.585, -0.732, 0.244, -0.549, -56.129, 2.131, 57.354, -2.620, 18.813, -137.460, 23.09, -0.77609, 0.40857, 0.20306, -0.43518,
 08:16:56.537,f7:68:33:b1:9e:f1, 2015-01-01 01:02:58.545, -0.039, -0.816, 0.585, -0.732, 0.244, -0.549, -56.135, 2.126, 57.354, -2.620, 18.813, -137.460, 23.09, -0.77609, 0.40857, 0.20306, -0.43518,
 08:16:56.537,f7:68:33:b1:9e:f1, 2015-01-01 01:02:58.545, -0.039, -0.816, 0.585, -0.732, 0.244, -0.549, -56.135, 2.126, 57.349, -2.620, 18.813, -137.460, 23.09, -0.77609, 0.40857, 0.20306, -0.43518,
 08:16:56.537,f7:68:33:b1:9e:f1, 2015-01-01 01:02:58.545, -0.038, -0.816, 0.585, -0.732, 0.244, -0.549, -56.14, 2.126, 57.349, -2.620, 18.813, -137.460, 23.09, -0.77609, 0.40857, 0.20306, -0.43518,
 08:16:56.547,d6:24:01:31:b7:6e, 2015-01-01 00:58:43.285, -0.147, -0.417, 0.928, -0.183, 0.122, -0.183, -24.593, 8.586, -22.308, -4.920, 57.133, -42.640, 24.9, 0.95895, -0.19418, 0.11282, -0.17288,
 08:16:56.592,f7:68:33:b1:9e:f1, 2015-01-01 01:02:58.905, -0.038, -0.814, 0.585, -0.671, 0.427, -0.671, -56.146, 2.126, 57.343, -2.620, 18.813, -137.460, 23.09, -0.77609, 0.40857, 0.20306, -0.43518,
 08:16:56.592,f7:68:33:b1:9e:f1, 2015-01-01 01:02:58.905, -0.038, -0.814, 0.585, -0.671, 0.427, -0.671, -56.146, 2.12, 57.338, -2.620, 18.813, -137.460, 23.09, -0.77609, 0.40857, 0.20306, -0.43518,
 08:16:56.592,f7:68:33:b1:9e:f1, 2015-01-01 01:02:58.905, -0.038, -0.814, 0.585, -0.671, 0.427, -0.671, -56.151, 2.12, 57.338, -2.620, 18.813, -137.460, 23.09, -0.77609, 0.40857, 0.20306, -0.43518,
 08:16:56.592,f7:68:33:b1:9e:f1, 2015-01-01 01:02:58.905, -0.042, -0.814, 0.585, -0.671, 0.427, -0.671, -56.151, 2.12, 57.332, -2.620, 18.813, -137.460, 23.09, -0.77609, 0.40857, 0.20306, -0.43518,
 08:16:56.592,f7:68:33:b1:9e:f1, 2015-01-01 01:02:58.905, -0.042, -0.814, 0.586, -1.099, 0.732, -0.916, -56.162, 2.115, 57.327, -2.620, 18.813, -137.460, 23.09, -0.77609, 0.40857, 0.20306, -0.43518,
 08:16:56.592,f7:68:33:b1:9e:f1, 2015-01-01 01:02:58.905, -0.042, -0.814, 0.586, -1.099, 0.732, -0.916, -56.168, 2.115, 57.321, -2.620, 18.813, -137.460, 23.09, -0.77609, 0.40857, 0.20306, -0.43518,
 08:16:56.592,f7:68:33:b1:9e:f1, 2015-01-01 01:02:58.905, -0.042, -0.814, 0.586, -1.099, 0.732, -0.916, -56.173, 2.115, 57.316, -2.620, 18.813, -137.460, 23.09, -0.77609, 0.40857, 0.20306, -0.43518,
 08:16:56.592,f7:68:33:b1:9e:f1, 2015-01-01 01:02:58.905, -0.04, -0.814, 0.586, -1.099, 0.732, -0.916, -56.179, 2.115, 57.31, -2.620, 18.813, -137.460, 23.09, -0.77609, 0.40857, 0.20306, -0.43518,
 08:16:56.624,f7:68:33:b1:9e:f1, 2015-01-01 01:02:58.905, -0.04, -0.818, 0.589, -1.282, 0.977, -1.404, -56.184, 2.109, 57.299, -2.620, 18.813, -137.460, 23.09, -0.77609, 0.40857, 0.20306, -0.43518,
 08:16:56.624,f7:68:33:b1:9e:f1, 2015-01-01 01:02:58.905, -0.04, -0.818, 0.589, -1.282, 0.977, -1.404, -56.19, 2.109, 57.294, -2.620, 18.813, -137.460, 23.09, -0.77609, 0.40857, 0.20306, -0.43518,
 08:16:56.624,f7:68:33:b1:9e:f1, 2015-01-01 01:02:58.905, -0.04, -0.818, 0.589, -1.282, 0.977, -1.404, -56.195, 2.104, 57.283, -2.620, 18.813, -137.460, 23.09, -0.77609, 0.40857, 0.20306, -0.43518,
 08:16:56.624,f7:68:33:b1:9e:f1, 2015-01-01 01:02:58.905, -0.042, -0.818, 0.589, -1.282, 0.977, -1.404, -56.201, 2.104, 57.277, -2.620, 18.813, -137.460, 23.09, -0.77609, 0.40857, 0.20306, -0.43518,
 08:16:56.624,f7:68:33:b1:9e:f1, 2015-01-01 01:02:58.905, -0.042, -0.821, 0.583, -1.465, 1.16, -1.953, -56.212, 2.098, 57.266, -2.620, 18.813, -137.460, 23.09, -0.77609, 0.40857, 0.20306, -0.43518,
 08:16:56.624,f7:68:33:b1:9e:f1, 2015-01-01 01:02:58.905, -0.042, -0.821, 0.583, -1.465, 1.16, -1.953, -56.217, 2.093, 57.255, -2.620, 18.813, -137.460, 23.09, -0.77609, 0.40857, 0.20306, -0.43518,
 08:16:56.624,f7:68:33:b1:9e:f1, 2015-01-01 01:02:58.905, -0.042, -0.821, 0.583, -1.465, 1.16, -1.953, -56.223, 2.087, 57.244, -2.620, 18.813, -137.460, 23.09, -0.77609, 0.40857, 0.20306, -0.43518,
 08:16:56.624,f7:68:33:b1:9e:f1, 2015-01-01 01:02:58.905, -0.04, -0.821, 0.583, -1.465, 1.16, -1.953, -56.234, 2.082, 57.233, -2.620, 18.813, -137.460, 23.09, -0.77609, 0.40857, 0.20306, -0.43518,
 08:16:56.636,d6:24:01:31:b7:6e, 2015-01-01 00:58:43.700, -0.148, -0.416, 0.925, -0.427, 0.122, -0.61, -24.604, 8.564, -22.341, -4.920, 57.133, -42.640, 24.9, 0.95895, -0.19418, 0.11282, -0.17288,
 08:16:56.654,f7:68:33:b1:9e:f1, 2015-01-01 01:02:58.905, -0.04, -0.822, 0.587, -0.977, 1.16, -2.441, -56.239, 2.076, 57.222, -2.620, 18.813, -137.460, 23.09, -0.77609, 0.40857, 0.20306, -0.43518,
 08:16:56.654,f7:68:33:b1:9e:f1, 2015-01-01 01:02:58.905, -0.04, -0.822, 0.587, -0.977, 1.16, -2.441, -56.245, 2.071, 57.211, -2.620, 18.813, -137.460, 23.09, -0.77609, 0.40857, 0.20306, -0.43518,
 08:16:56.654,f7:68:33:b1:9e:f1, 2015-01-01 01:02:58.905, -0.04, -0.822, 0.587, -0.977, 1.16, -2.441, -56.245, 2.065, 57.2, -2.620, 18.813, -137.460, 23.09, -0.77609, 0.40857, 0.20306, -0.43518,
 08:16:56.654,f7:68:33:b1:9e:f1, 2015-01-01 01:02:58.905, -0.037, -0.822, 0.587, -0.977, 1.16, -2.441, -56.25, 2.06, 57.189, -2.620, 18.813, -137.460, 23.09, -0.77609, 0.40857, 0.20306, -0.43518,
 08:16:56.654,f7:68:33:b1:9e:f1, 2015-01-01 01:02:58.905, -0.037, -0.818, 0.588, -0.977, 1.709, -3.113, -56.255, 2.049, 57.173, -2.620, 18.813, -137.460, 23.09, -0.77609, 0.40857, 0.20306, -0.43518,
 08:16:56.654,f7:68:33:b1:9e:f1, 2015-01-01 01:02:58.905, -0.037, -0.818, 0.588, -0.977, 1.709, -3.113, -56.261, 2.043, 57.156, -2.620, 18.813, -137.460, 23.09, -0.77609, 0.40857, 0.20306, -0.43518,
 08:16:56.654,f7:68:33:b1:9e:f1, 2015-01-01 01:02:58.905, -0.037, -0.818, 0.588, -0.977, 1.709, -3.113, -56.266, 2.038, 57.14, -2.620, 18.813, -137.460, 23.09, -0.77609, 0.40857, 0.20306, -0.43518,
 08:16:56.654,f7:68:33:b1:9e:f1, 2015-01-01 01:02:58.905, -0.034, -0.818, 0.588, -0.977, 1.709, -3.113, -56.272, 2.027, 57.123, -2.620, 18.813, -137.460, 23.09, -0.77609, 0.40857, 0.20306, -0.43518,
 08:16:56.713,f7:68:33:b1:9e:f1, 2015-01-01 01:02:58.905, -0.034, -0.824, 0.584, -3.235, 3.967, -3.845, -56.288, 2.027, 57.096, -2.620, 18.813, -137.460, 23.09, -0.77609, 0.40857, 0.20306, -0.43518,
 08:16:56.713,f7:68:33:b1:9e:f1, 2015-01-01 01:02:58.905, -0.034, -0.824, 0.584, -3.235, 3.967, -3.845, -56.305, 2.021, 57.068, -2.620, 18.813, -137.460, 23.09, -0.77609, 0.40857, 0.20306, -0.43518,
 08:16:56.713,f7:68:33:b1:9e:f1, 2015-01-01 01:02:58.905, -0.034, -0.824, 0.584, -3.235, 3.967, -3.845, -56.321, 2.016, 57.041, -2.620, 18.813, -137.460, 23.09, -0.77609, 0.40857, 0.20306, -0.43518,
 08:16:56.713,f7:68:33:b1:9e:f1, 2015-01-01 01:02:58.905, -0.041, -0.824, 0.584, -3.235, 3.967, -3.845, -56.338, 2.01, 57.014, -2.620, 18.813, -137.460, 23.09, -0.77609, 0.40857, 0.20306, -0.43518,
 08:16:56.713,f7:68:33:b1:9e:f1, 2015-01-01 01:02:58.905, -0.041, -0.831, 0.584, -2.075, 3.174, -3.906, -56.349, 2.005, 56.992, -2.620, 18.813, -137.460, 23.09, -0.77609, 0.40857, 0.20306, -0.43518,
 08:16:56.713,f7:68:33:b1:9e:f1, 2015-01-01 01:02:58.905, -0.041, -0.831, 0.584, -2.075, 3.174, -3.906, -56.36, 2, 56.964, -2.620, 18.813, -137.460, 23.09, -0.77609, 0.40857, 0.20306, -0.43518,
 08:16:56.713,f7:68:33:b1:9e:f1, 2015-01-01 01:02:58.905, -0.041, -0.831, 0.584, -2.075, 3.174, -3.906, -56.371, 1.994, 56.942, -2.620, 18.813, -137.460, 23.09, -0.77609, 0.40857, 0.20306, -0.43518,
 08:16:56.714,f7:68:33:b1:9e:f1, 2015-01-01 01:02:58.905, -0.044, -0.831, 0.584, -2.075, 3.174, -3.906, -56.382, 1.989, 56.915, -2.620, 18.813, -137.460, 23.09, -0.77609, 0.40857, 0.20306, -0.43518,
 08:16:56.745,f7:68:33:b1:9e:f1, 2015-01-01 01:02:58.905, -0.044, -0.837, 0.583, -1.404, 2.38, -3.906, -56.393, 1.978, 56.898, -2.620, 18.813, -137.460, 23.09, -0.77609, 0.40857, 0.20306, -0.43518,
 08:16:56.745,f7:68:33:b1:9e:f1, 2015-01-01 01:02:58.905, -0.044, -0.837, 0.583, -1.404, 2.38, -3.906, -56.398, 1.972, 56.876, -2.620, 18.813, -137.460, 23.09, -0.77609, 0.40857, 0.20306, -0.43518,
 08:16:56.745,f7:68:33:b1:9e:f1, 2015-01-01 01:02:58.905, -0.044, -0.837, 0.583, -1.404, 2.38, -3.906, -56.409, 1.961, 56.854, -2.620, 18.813, -137.460, 23.09, -0.77609, 0.40857, 0.20306, -0.43518,
 08:16:56.745,f7:68:33:b1:9e:f1, 2015-01-01 01:02:58.905, -0.041, -0.837, 0.583, -1.404, 2.38, -3.906, -56.415, 1.95, 56.832, -2.620, 18.813, -137.460, 23.09, -0.77609, 0.40857, 0.20306, -0.43518,
 08:16:56.745,f7:68:33:b1:9e:f1, 2015-01-01 01:02:58.905, -0.041, -0.834, 0.581, 0, 0.916, -4.089, -56.415, 1.939, 56.816, -2.620, 18.813, -137.460, 23.09, -0.77609, 0.40857, 0.20306, -0.43518,
 08:16:56.745,f7:68:33:b1:9e:f1, 2015-01-01 01:02:58.905, -0.041, -0.834, 0.581, 0, 0.916, -4.089, -56.415, 1.928, 56.799, -2.620, 18.813, -137.460, 23.09, -0.77609, 0.40857, 0.20306, -0.43518,
 08:16:56.745,f7:68:33:b1:9e:f1, 2015-01-01 01:02:58.905, -0.041, -0.834, 0.581, 0, 0.916, -4.089, -56.42, 1.912, 56.788, -2.620, 18.813, -137.460, 23.09, -0.77609, 0.40857, 0.20306, -0.43518,
 08:16:56.745,f7:68:33:b1:9e:f1, 2015-01-01 01:02:58.905, -0.04, -0.834, 0.581, 0, 0.916, -4.089, -56.42, 1.901, 56.772, -2.620, 18.813, -137.460, 23.09, -0.77609, 0.40857, 0.20306, -0.43518,
 08:16:56.757,d6:24:01:31:b7:6e, 2015-01-01 00:58:43.700, -0.149, -0.419, 0.929, -0.732, -0.244, -2.747, -24.664, 8.498, -22.473, -4.920, 57.133, -42.640, 24.9, 0.95895, -0.19418, 0.11282, -0.17288,
 08:16:56.773,f7:68:33:b1:9e:f1, 2015-01-01 01:02:58.905, -0.04, -0.847, 0.583, 1.099, -0.793, -4.333, -56.415, 1.879, 56.761, -3.220, 19.227, -136.487, 23.09, -0.77609, 0.40857, 0.20306, -0.43518,
 08:16:56.773,f7:68:33:b1:9e:f1, 2015-01-01 01:02:58.905, -0.04, -0.847, 0.583, 1.099, -0.793, -4.333, -56.409, 1.862, 56.75, -3.220, 19.227, -136.487, 23.09, -0.77609, 0.40857, 0.20306, -0.43518,
 08:16:56.773,f7:68:33:b1:9e:f1, 2015-01-01 01:02:58.905, -0.04, -0.847, 0.583, 1.099, -0.793, -4.333, -56.404, 1.84, 56.744, -3.220, 19.227, -136.487, 23.09, -0.77609, 0.40857, 0.20306, -0.43518,
 08:16:56.773,f7:68:33:b1:9e:f1, 2015-01-01 01:02:58.905, -0.035, -0.847, 0.583, 1.099, -0.793, -4.333, -56.398, 1.824, 56.733, -3.220, 19.227, -136.487, 23.09, -0.77609, 0.40857, 0.20306, -0.43518,
 08:16:56.773,f7:68:33:b1:9e:f1, 2015-01-01 01:02:58.905, -0.035, -0.846, 0.587, 2.136, -1.465, -4.028, -56.393, 1.802, 56.728, -3.220, 19.227, -136.487, 23.09, -0.77609, 0.40857, 0.20306, -0.43518,
 08:16:56.773,f7:68:33:b1:9e:f1, 2015-01-01 01:02:58.905, -0.035, -0.846, 0.587, 2.136, -1.465, -4.028, -56.382, 1.785, 56.722, -3.220, 19.227, -136.487, 23.09, -0.77609, 0.40857, 0.20306, -0.43518,
 08:16:56.773,f7:68:33:b1:9e:f1, 2015-01-01 01:02:58.905, -0.035, -0.846, 0.587, 2.136, -1.465, -4.028, -56.371, 1.763, 56.717, -3.220, 19.227, -136.487, 23.09, -0.77609, 0.40857, 0.20306, -0.43518,
 08:16:56.773,f7:68:33:b1:9e:f1, 2015-01-01 01:02:58.905, -0.03, -0.846, 0.587, 2.136, -1.465, -4.028, -56.365, 1.741, 56.711, -3.220, 19.227, -136.487, 23.09, -0.77609, 0.40857, 0.20306, -0.43518,
 08:16:56.835,f7:68:33:b1:9e:f1, 2015-01-01 01:02:58.905, -0.03, -0.851, 0.589, 2.075, -0.427, -4.272, -56.354, 1.725, 56.7, -3.220, 19.227, -136.487, 23.09, -0.77609, 0.40857, 0.20306, -0.43518,
 08:16:56.835,f7:68:33:b1:9e:f1, 2015-01-01 01:02:58.905, -0.03, -0.851, 0.589, 2.075, -0.427, -4.272, -56.343, 1.708, 56.689, -3.220, 19.227, -136.487, 23.09, -0.77609, 0.40857, 0.20306, -0.43518,
 08:16:56.835,f7:68:33:b1:9e:f1, 2015-01-01 01:02:58.905, -0.03, -0.851, 0.589, 2.075, -0.427, -4.272, -56.338, 1.692, 56.678, -3.220, 19.227, -136.487, 23.09, -0.77609, 0.40857, 0.20306, -0.43518,
 08:16:56.835,f7:68:33:b1:9e:f1, 2015-01-01 01:02:58.905, -0.014, -0.851, 0.589, 2.075, -0.427, -4.272, -56.327, 1.67, 56.667, -3.220, 19.227, -136.487, 23.09, -0.77609, 0.40857, 0.20306, -0.43518,
 08:16:56.835,f7:68:33:b1:9e:f1, 2015-01-01 01:02:58.905, -0.014, -0.841, 0.596, -3.784, -2.197, -6.348, -56.349, 1.642, 56.656, -3.220, 19.227, -136.487, 23.09, -0.77609, 0.40857, 0.20306, -0.43518,
 08:16:56.835,f7:68:33:b1:9e:f1, 2015-01-01 01:02:58.905, -0.014, -0.841, 0.596, -3.784, -2.197, -6.348, -56.371, 1.609, 56.646, -3.220, 19.227, -136.487, 23.09, -0.77609, 0.40857, 0.20306, -0.43518,
 08:16:56.835,f7:68:33:b1:9e:f1, 2015-01-01 01:02:58.905, -0.014, -0.841, 0.596, -3.784, -2.197, -6.348, -56.387, 1.577, 56.64, -3.220, 19.227, -136.487, 23.09, -0.77609, 0.40857, 0.20306, -0.43518,
 08:16:56.835,f7:68:33:b1:9e:f1, 2015-01-01 01:02:58.905, -0.075, -0.841, 0.596, -3.784, -2.197, -6.348, -56.409, 1.544, 56.629, -3.220, 19.227, -136.487, 23.09, -0.77609, 0.40857, 0.20306, -0.43518,
 08:16:56.849,d6:24:01:31:b7:6e, 2015-01-01 00:58:43.700, -0.146, -0.429, 0.934, 1.587, -1.892, -3.418, -24.659, 8.245, -22.747, -5.773, 57.107, -42.247, 24.9, 0.95895, -0.19418, 0.11282, -0.17288,
 08:16:56.863,f7:68:33:b1:9e:f1, 2015-01-01 01:02:58.905, -0.075, -0.862, 0.583, 0, -4.272, -4.578, -56.409, 1.516, 56.635, -3.220, 19.227, -136.487, 23.09, -0.77875, 0.40985, 0.20468, -0.42844,
 08:16:56.863,f7:68:33:b1:9e:f1, 2015-01-01 01:02:58.905, -0.075, -0.862, 0.583, 0, -4.272, -4.578, -56.415, 1.483, 56.64, -3.220, 19.227, -136.487, 23.09, -0.77875, 0.40985, 0.20468, -0.42844,
 08:16:56.863,f7:68:33:b1:9e:f1, 2015-01-01 01:02:58.905, -0.075, -0.862, 0.583, 0, -4.272, -4.578, -56.415, 1.456, 56.64, -3.220, 19.227, -136.487, 23.09, -0.77875, 0.40985, 0.20468, -0.42844,
 08:16:56.863,f7:68:33:b1:9e:f1, 2015-01-01 01:02:58.905, 0.015, -0.862, 0.583, 0, -4.272, -4.578, -56.415, 1.428, 56.646, -3.220, 19.227, -136.487, 23.09, -0.77875, 0.40985, 0.20468, -0.42844,
 08:16:56.863,f7:68:33:b1:9e:f1, 2015-01-01 01:02:58.905, 0.015, -0.871, 0.604, 5.798, -7.996, -5.92, -56.387, 1.384, 56.662, -3.220, 19.227, -136.487, 23.09, -0.77875, 0.40985, 0.20468, -0.42844,
 08:16:56.863,f7:68:33:b1:9e:f1, 2015-01-01 01:02:58.905, 0.015, -0.871, 0.604, 5.798, -7.996, -5.92, -56.36, 1.335, 56.678, -3.220, 19.227, -136.487, 23.09, -0.77875, 0.40985, 0.20468, -0.42844,
 08:16:56.863,f7:68:33:b1:9e:f1, 2015-01-01 01:02:58.905, 0.015, -0.871, 0.604, 5.798, -7.996, -5.92, -56.332, 1.291, 56.689, -3.220, 19.227, -136.487, 23.09, -0.77875, 0.40985, 0.20468, -0.42844,
 08:16:56.863,f7:68:33:b1:9e:f1, 2015-01-01 01:02:58.905, -0.053, -0.871, 0.604, 5.798, -7.996, -5.92, -56.305, 1.241, 56.706, -3.220, 19.227, -136.487, 23.09, -0.77875, 0.40985, 0.20468, -0.42844,
 08:16:56.893,f7:68:33:b1:9e:f1, 2015-01-01 01:02:58.905, -0.053, -0.877, 0.604, -5.127, -2.991, -7.263, -56.332, 1.208, 56.7, -3.220, 19.227, -136.487, 23.09, -0.77875, 0.40985, 0.20468, -0.42844,
 08:16:56.893,f7:68:33:b1:9e:f1, 2015-01-01 01:02:58.905, -0.053, -0.877, 0.604, -5.127, -2.991, -7.263, -56.36, 1.17, 56.689, -3.220, 19.227, -136.487, 23.09, -0.77875, 0.40985, 0.20468, -0.42844,
 08:16:56.893,f7:68:33:b1:9e:f1, 2015-01-01 01:02:58.905, -0.053, -0.877, 0.604, -5.127, -2.991, -7.263, -56.387, 1.132, 56.678, -3.220, 19.227, -136.487, 23.09, -0.77875, 0.40985, 0.20468, -0.42844,
 08:16:56.893,f7:68:33:b1:9e:f1, 2015-01-01 01:02:58.905, -0.038, -0.877, 0.604, -5.127, -2.991, -7.263, -56.415, 1.099, 56.673, -3.220, 19.227, -136.487, 23.09, -0.77875, 0.40985, 0.20468, -0.42844,
 08:16:56.893,f7:68:33:b1:9e:f1, 2015-01-01 01:02:58.905, -0.038, -0.893, 0.568, 13.611, -19.531, -0.366, -56.349, 1.038, 56.75, -3.220, 19.227, -136.487, 23.09, -0.77875, 0.40985, 0.20468, -0.42844,
 08:16:56.893,f7:68:33:b1:9e:f1, 2015-01-01 01:02:58.905, -0.038, -0.893, 0.568, 13.611, -19.531, -0.366, -56.283, 0.983, 56.827, -3.220, 19.227, -136.487, 23.09, -0.77875, 0.40985, 0.20468, -0.42844,
 08:16:56.893,f7:68:33:b1:9e:f1, 2015-01-01 01:02:58.905, -0.001, -0.893, 0.568, 13.611, -19.531, -0.366, -56.217, 0.928, 56.909, -3.220, 19.227, -136.487, 23.09, -0.77875, 0.40985, 0.20468, -0.42844,
 08:16:56.893,f7:68:33:b1:9e:f1, 2015-01-01 01:02:58.905, -0.001, -0.916, 0.625, 23.438, -23.193, 0.916, -56.102, 0.868, 57.003, -3.220, 19.227, -136.487, 23.09, -0.77875, 0.40985, 0.20468, -0.42844,
 08:16:56.953,f7:68:33:b1:9e:f1, 2015-01-01 01:02:59.260, -0.001, -0.916, 0.625, 23.438, -23.193, 0.916, -55.986, 0.807, 57.101, -3.220, 19.227, -136.487, 23.09, -0.77875, 0.40985, 0.20468, -0.42844,
 08:16:56.953,f7:68:33:b1:9e:f1, 2015-01-01 01:02:59.260, -0.001, -0.916, 0.625, 23.438, -23.193, 0.916, -55.871, 0.742, 57.2, -3.220, 19.227, -136.487, 23.09, -0.77875, 0.40985, 0.20468, -0.42844,
 08:16:56.953,f7:68:33:b1:9e:f1, 2015-01-01 01:02:59.260, -0.056, -0.916, 0.625, 23.438, -23.193, 0.916, -55.756, 0.681, 57.294, -3.220, 19.227, -136.487, 23.09, -0.77875, 0.40985, 0.20468, -0.42844,
 08:16:56.953,f7:68:33:b1:9e:f1, 2015-01-01 01:02:59.260, -0.056, -0.946, 0.635, 23.682, -22.034, -2.747, -55.646, 0.61, 57.376, -3.220, 19.227, -136.487, 23.09, -0.77875, 0.40985, 0.20468, -0.42844,
 08:16:56.953,f7:68:33:b1:9e:f1, 2015-01-01 01:02:59.260, -0.056, -0.946, 0.635, 23.682, -22.034, -2.747, -55.53, 0.533, 57.458, -3.220, 19.227, -136.487, 23.09, -0.77875, 0.40985, 0.20468, -0.42844,
 08:16:56.953,f7:68:33:b1:9e:f1, 2015-01-01 01:02:59.260, -0.056, -0.946, 0.635, 23.682, -22.034, -2.747, -55.415, 0.461, 57.535, -3.220, 19.227, -136.487, 23.09, -0.77875, 0.40985, 0.20468, -0.42844,
 08:16:56.953,f7:68:33:b1:9e:f1, 2015-01-01 01:02:59.260, -0.146, -0.946, 0.635, 23.682, -22.034, -2.747, -55.305, 0.39, 57.618, -3.220, 19.227, -136.487, 23.09, -0.77875, 0.40985, 0.20468, -0.42844,
 08:16:56.953,f7:68:33:b1:9e:f1, 2015-01-01 01:02:59.260, -0.146, -0.911, 0.629, 66.223, -39.429, 7.568, -54.981, 0.308, 57.799, -3.220, 19.227, -136.487, 23.09, -0.77875, 0.40985, 0.20468, -0.42844,
 08:16:56.966,d6:24:01:31:b7:6e, 2015-01-01 00:58:44.060, -0.164, -0.434, 0.96, 7.812, -7.996, 1.709, -24.142, 7.74, -22.654, -5.773, 57.107, -42.247, 24.9, 0.95938, -0.19162, 0.10571, -0.17776,
 08:16:56.983,f7:68:33:b1:9e:f1, 2015-01-01 01:02:59.260, -0.146, -0.911, 0.629, 66.223, -39.429, 7.568, -54.657, 0.225, 57.98, -3.220, 19.227, -136.487, 23.09, -0.77875, 0.40985, 0.20468, -0.42844,
 08:16:56.983,f7:68:33:b1:9e:f1, 2015-01-01 01:02:59.260, -0.146, -0.911, 0.629, 66.223, -39.429, 7.568, -54.333, 0.143, 58.156, -3.220, 19.227, -136.487, 23.09, -0.77875, 0.40985, 0.20468, -0.42844,
 08:16:56.983,f7:68:33:b1:9e:f1, 2015-01-01 01:02:59.260, -0.02, -0.911, 0.629, 66.223, -39.429, 7.568, -54.009, 0.06, 58.337, -3.220, 19.227, -136.487, 23.09, -0.77875, 0.40985, 0.20468, -0.42844,
 08:16:56.983,f7:68:33:b1:9e:f1, 2015-01-01 01:02:59.260, -0.02, -0.881, 0.649, 96.252, -64.453, 3.174, -53.542, -0.115, 58.601, -3.220, 19.227, -136.487, 23.09, -0.77875, 0.40985, 0.20468, -0.42844,
 08:16:56.983,f7:68:33:b1:9e:f1, 2015-01-01 01:02:59.260, -0.02, -0.881, 0.649, 96.252, -64.453, 3.174, -53.069, -0.291, 58.865, -3.220, 19.227, -136.487, 23.09, -0.77875, 0.40985, 0.20468, -0.42844,
 08:16:56.983,f7:68:33:b1:9e:f1, 2015-01-01 01:02:59.260, -0.02, -0.881, 0.649, 96.252, -64.453, 3.174, -52.603, -0.472, 59.123, -3.220, 19.227, -136.487, 23.09, -0.77875, 0.40985, 0.20468, -0.42844,
 08:16:56.983,f7:68:33:b1:9e:f1, 2015-01-01 01:02:59.260, -0.087, -0.881, 0.649, 96.252, -64.453, 3.174, -52.141, -0.659, 59.387, -3.220, 19.227, -136.487, 23.09, -0.77875, 0.40985, 0.20468, -0.42844,
 08:16:56.983,f7:68:33:b1:9e:f1, 2015-01-01 01:02:59.260, -0.087, -0.798, 0.858, 110.84, -54.688, 6.287, -51.603, -0.797, 59.617, -3.220, 19.227, -136.487, 23.09, -0.77875, 0.40985, 0.20468, -0.42844,
 08:16:57.013,f7:68:33:b1:9e:f1, 2015-01-01 01:02:59.260, -0.087, -0.798, 0.858, 110.84, -54.688, 6.287, -51.064, -0.939, 59.843, -3.220, 19.227, -136.487, 23.09, -0.77875, 0.40985, 0.20468, -0.42844,
 08:16:57.013,f7:68:33:b1:9e:f1, 2015-01-01 01:02:59.260, -0.087, -0.798, 0.858, 110.84, -54.688, 6.287, -50.526, -1.088, 60.073, -3.220, 19.227, -136.487, 23.09, -0.77875, 0.40985, 0.20468, -0.42844,
 08:16:57.013,f7:68:33:b1:9e:f1, 2015-01-01 01:02:59.260, -0.01, -0.798, 0.858, 110.84, -54.688, 6.287, -49.993, -1.23, 60.298, -3.220, 19.227, -136.487, 23.09, -0.77875, 0.40985, 0.20468, -0.42844,
 08:16:57.013,f7:68:33:b1:9e:f1, 2015-01-01 01:02:59.260, -0.01, -0.646, 0.822, 33.447, 4.028, -4.883, -49.839, -1.225, 60.271, -3.220, 19.227, -136.487, 23.09, -0.77875, 0.40985, 0.20468, -0.42844,
 08:16:57.013,f7:68:33:b1:9e:f1, 2015-01-01 01:02:59.260, -0.01, -0.646, 0.822, 33.447, 4.028, -4.883, -49.68, -1.219, 60.238, -3.220, 19.227, -136.487, 23.09, -0.77875, 0.40985, 0.20468, -0.42844,
 08:16:57.013,f7:68:33:b1:9e:f1, 2015-01-01 01:02:59.260, -0.01, -0.646, 0.822, 33.447, 4.028, -4.883, -49.521, -1.214, 60.205, -3.220, 19.227, -136.487, 23.09, -0.77875, 0.40985, 0.20468, -0.42844,
 08:16:57.013,f7:68:33:b1:9e:f1, 2015-01-01 01:02:59.260, -0.042, -0.646, 0.822, 33.447, 4.028, -4.883, -49.362, -1.208, 60.178, -3.220, 19.227, -136.487, 23.09, -0.77875, 0.40985, 0.20468, -0.42844,
 08:16:57.013,f7:68:33:b1:9e:f1, 2015-01-01 01:02:59.260, -0.042, -0.834, 0.638, 133.484, -34.973, 10.742, -48.708, -1.274, 60.342, -3.220, 19.227, -136.487, 23.09, -0.77875, 0.40985, 0.20468, -0.42844,
 08:16:57.058,d6:24:01:31:b7:6e, 2015-01-01 00:58:44.060, -0.074, -0.465, 1.074, 30.09, -34.363, 25.269, -22.335, 6.279, -20.786, -5.773, 57.107, -42.247, 24.9, 0.95938, -0.19162, 0.10571, -0.17776,
 08:16:57.073,f7:68:33:b1:9e:f1, 2015-01-01 01:02:59.260, -0.042, -0.834, 0.638, 133.484, -34.973, 10.742, -48.054, -1.346, 60.507, -3.220, 19.227, -136.487, 23.09, -0.77875, 0.40985, 0.20468, -0.42844,
 08:16:57.073,f7:68:33:b1:9e:f1, 2015-01-01 01:02:59.260, -0.042, -0.834, 0.638, 133.484, -34.973, 10.742, -47.406, -1.417, 60.672, -3.220, 19.227, -136.487, 23.09, -0.77875, 0.40985, 0.20468, -0.42844,
 08:16:57.073,f7:68:33:b1:9e:f1, 2015-01-01 01:02:59.260, -0.066, -0.834, 0.638, 133.484, -34.973, 10.742, -46.763, -1.489, 60.831, -3.220, 19.227, -136.487, 23.09, -0.77875, 0.40985, 0.20468, -0.42844,
 08:16:57.073,f7:68:33:b1:9e:f1, 2015-01-01 01:02:59.260, -0.066, -0.627, 1.023, 243.591, -123.352, 21.667, -45.571, -1.846, 61.342, -3.220, 19.227, -136.487, 23.09, -0.77875, 0.40985, 0.20468, -0.42844,
 08:16:57.073,f7:68:33:b1:9e:f1, 2015-01-01 01:02:59.260, -0.066, -0.627, 1.023, 243.591, -123.352, 21.667, -44.39, -2.203, 61.848, -3.220, 19.227, -136.487, 23.09, -0.77875, 0.40985, 0.20468, -0.42844,
 08:16:57.073,f7:68:33:b1:9e:f1, 2015-01-01 01:02:59.260, -0.066, -0.627, 1.023, 243.591, -123.352, 21.667, -43.209, -2.576, 62.342, -3.220, 19.227, -136.487, 23.09, -0.77875, 0.40985, 0.20468, -0.42844,
 08:16:57.073,f7:68:33:b1:9e:f1, 2015-01-01 01:02:59.260, 0.36, -0.627, 1.023, 243.591, -123.352, 21.667, -42.034, -2.955, 62.831, -3.220, 19.227, -136.487, 23.09, -0.77875, 0.40985, 0.20468, -0.42844,
 08:16:57.073,f7:68:33:b1:9e:f1, 2015-01-01 01:02:59.260, 0.36, -0.617, 1.152, 228.577, -216.064, 62.5, -40.963, -3.576, 63.759, -3.220, 19.227, -136.487, 23.09, -0.77875, 0.40985, 0.20468, -0.42844,
 08:16:57.103,f7:68:33:b1:9e:f1, 2015-01-01 01:02:59.260, 0.36, -0.617, 1.152, 228.577, -216.064, 62.5, -39.897, -4.208, 64.682, -3.220, 19.227, -136.487, 23.09, -0.77875, 0.40985, 0.20468, -0.42844,
 08:16:57.103,f7:68:33:b1:9e:f1, 2015-01-01 01:02:59.260, 0.36, -0.617, 1.152, 228.577, -216.064, 62.5, -38.848, -4.861, 65.594, -3.220, 19.227, -136.487, 23.09, -0.77875, 0.40985, 0.20468, -0.42844,
 08:16:57.103,f7:68:33:b1:9e:f1, 2015-01-01 01:02:59.260, 0.549, -0.617, 1.152, 228.577, -216.064, 62.5, -37.804, -5.532, 66.495, -3.220, 19.227, -136.487, 23.09, -0.77875, 0.40985, 0.20468, -0.42844,
 08:16:57.103,f7:68:33:b1:9e:f1, 2015-01-01 01:02:59.260, 0.549, -0.517, 1.146, 190.247, -219.604, 124.207, -36.985, -6.053, 67.643, -3.220, 19.227, -136.487, 23.09, -0.77875, 0.40985, 0.20468, -0.42844,
 08:16:57.103,f7:68:33:b1:9e:f1, 2015-01-01 01:02:59.260, 0.549, -0.517, 1.146, 190.247, -219.604, 124.207, -36.178, -6.597, 68.791, -3.220, 19.227, -136.487, 23.09, -0.77875, 0.40985, 0.20468, -0.42844,
 08:16:57.103,f7:68:33:b1:9e:f1, 2015-01-01 01:02:59.260, 0.549, -0.517, 1.146, 190.247, -219.604, 124.207, -35.376, -7.158, 69.928, -3.220, 19.227, -136.487, 23.09, -0.77875, 0.40985, 0.20468, -0.42844,
 08:16:57.104,f7:68:33:b1:9e:f1, 2015-01-01 01:02:59.260, 0.714, -0.517, 1.146, 190.247, -219.604, 124.207, -34.59, -7.729, 71.06, -3.220, 19.227, -136.487, 23.09, -0.77875, 0.40985, 0.20468, -0.42844,
 08:16:57.104,f7:68:33:b1:9e:f1, 2015-01-01 01:02:59.260, 1.429, -0.484, 1.235, 181.702, -233.337, 158.508, -33.876, -8.289, 72.367, -3.220, 19.227, -136.487, 23.09, -0.77875, 0.40985, 0.20468, -0.42844,
 08:16:57.134,f7:68:33:b1:9e:f1, 2015-01-01 01:02:59.260, 2.857, -0.969, 2.47, 181.702, -233.337, 158.508, -33.173, -8.871, 73.674, -9.973, 7.267, -159.673, 23.09, -0.77875, 0.40985, 0.20468, -0.42844,
 08:16:57.134,f7:68:33:b1:9e:f1, 2015-01-01 01:02:59.260, 5.715, -1.938, 4.939, 181.702, -233.337, 158.508, -32.476, -9.476, 74.971, -9.973, 7.267, -159.673, 23.09, -0.77875, 0.40985, 0.20468, -0.42844,
 08:16:57.134,f7:68:33:b1:9e:f1, 2015-01-01 01:02:59.260, 0.853, -3.875, 9.879, 181.702, -233.337, 158.508, -31.783, -10.107, 76.267, -9.973, 7.267, -159.673, 23.09, -0.77875, 0.40985, 0.20468, -0.42844,
 08:16:57.134,f7:68:33:b1:9e:f1, 2015-01-01 01:02:59.260, 0.853, -0.495, 1.645, 200.5, -266.235, 204.407, -31.058, -10.783, 77.838, -9.973, 7.267, -159.673, 23.09, -0.77875, 0.40985, 0.20468, -0.42844,
 08:16:57.134,f7:68:33:b1:9e:f1, 2015-01-01 01:02:59.260, 0.853, -0.495, 1.645, 200.5, -266.235, 204.407, -30.355, -11.481, 79.409, -9.973, 7.267, -159.673, 23.09, -0.77875, 0.40985, 0.20468, -0.42844,
 08:16:57.134,f7:68:33:b1:9e:f1, 2015-01-01 01:02:59.260, 0.853, -0.495, 1.645, 200.5, -266.235, 204.407, -29.674, -12.195, 80.975, -9.973, 7.267, -159.673, 23.09, -0.77875, 0.40985, 0.20468, -0.42844,
 08:16:57.135,f7:68:33:b1:9e:f1, 2015-01-01 01:02:59.260, 0.444, -0.495, 1.645, 200.5, -266.235, 204.407, -29.004, -12.925, 82.535, -9.973, 7.267, -159.673, 23.09, -0.77875, 0.40985, 0.20468, -0.42844,
 08:16:57.135,f7:68:33:b1:9e:f1, 2015-01-01 01:02:59.260, 0.444, -0.586, 2.072, 142.578, -135.559, 241.333, -28.608, -13.002, 83.952, -9.973, 7.267, -159.673, 23.09, -0.77875, 0.40985, 0.20468, -0.42844,
 08:16:57.178,d6:24:01:31:b7:6e, 2015-01-01 00:58:44.060, 0.202, -0.129, 1.236, 157.654, -162.048, 120.239, -16.133, -0.538, -13.09, -16.413, 34.047, -57.353, 24.9, 0.95938, -0.19162, 0.10571, -0.17776,
 08:16:57.194,f7:68:33:b1:9e:f1, 2015-01-01 01:02:59.260, 0.444, -0.586, 2.072, 142.578, -135.559, 241.333, -28.207, -13.085, 85.375, -9.973, 7.267, -159.673, 23.09, -0.77875, 0.40985, 0.20468, -0.42844,
 08:16:57.194,f7:68:33:b1:9e:f1, 2015-01-01 01:02:59.260, 0.444, -0.586, 2.072, 142.578, -135.559, 241.333, -27.812, -13.178, 86.797, -9.973, 7.267, -159.673, 23.09, -0.77875, 0.40985, 0.20468, -0.42844,
 08:16:57.194,f7:68:33:b1:9e:f1, 2015-01-01 01:02:59.260, -0.122, -0.586, 2.072, 142.578, -135.559, 241.333, -27.422, -13.277, 88.22, -9.973, 7.267, -159.673, 23.09, -0.77875, 0.40985, 0.20468, -0.42844,
 08:16:57.194,f7:68:33:b1:9e:f1, 2015-01-01 01:02:59.260, -0.122, -0.653, 1.8, 81.238, -48.95, 207.642, -27.252, -13.063, 89.291, -9.973, 7.267, -159.673, 23.09, -0.77875, 0.40985, 0.20468, -0.42844,
 08:16:57.194,f7:68:33:b1:9e:f1, 2015-01-01 01:02:59.260, -0.122, -0.653, 1.8, 81.238, -48.95, 207.642, -27.081, -12.854, 90.368, -9.973, 7.267, -159.673, 23.09, -0.77875, 0.40985, 0.20468, -0.42844,
 08:16:57.194,f7:68:33:b1:9e:f1, 2015-01-01 01:02:59.260, -0.122, -0.653, 1.8, 81.238, -48.95, 207.642, -26.906, -12.64, 91.439, -9.973, 7.267, -159.673, 23.09, -0.77875, 0.40985, 0.20468, -0.42844,
 08:16:57.194,f7:68:33:b1:9e:f1, 2015-01-01 01:02:59.260, -0.238, -0.653, 1.8, 81.238, -48.95, 207.642, -26.73, -12.431, 92.516, -9.973, 7.267, -159.673, 23.09, -0.77875, 0.40985, 0.20468, -0.42844,
 08:16:57.194,f7:68:33:b1:9e:f1, 2015-01-01 01:02:59.260, -0.238, -0.631, 1.389, 8.911, -71.96, 141.602, -26.851, -12.458, 93.329, -9.973, 7.267, -159.673, 23.09, -0.77875, 0.40985, 0.20468, -0.42844,
 08:16:57.224,f7:68:33:b1:9e:f1, 2015-01-01 01:02:59.260, -0.238, -0.631, 1.389, 8.911, -71.96, 141.602, -26.977, -12.486, 94.147, -9.973, 7.267, -159.673, 23.09, -0.72089, 0.08646, 0.23373, -0.64664,
 08:16:57.224,f7:68:33:b1:9e:f1, 2015-01-01 01:02:59.260, -0.238, -0.631, 1.389, 8.911, -71.96, 141.602, -27.103, -12.508, 94.96, -9.973, 7.267, -159.673, 23.09, -0.72089, 0.08646, 0.23373, -0.64664,
 08:16:57.224,f7:68:33:b1:9e:f1, 2015-01-01 01:02:59.260, -0.062, -0.631, 1.389, 8.911, -71.96, 141.602, -27.23, -12.524, 95.779, -9.973, 7.267, -159.673, 23.09, -0.72089, 0.08646, 0.23373, -0.64664,
 08:16:57.224,f7:68:33:b1:9e:f1, 2015-01-01 01:02:59.260, -0.062, -0.505, 0.764, 84.351, -37.476, 96.375, -26.922, -12.486, 96.312, -9.973, 7.267, -159.673, 23.09, -0.72089, 0.08646, 0.23373, -0.64664,
 08:16:57.224,f7:68:33:b1:9e:f1, 2015-01-01 01:02:59.260, -0.062, -0.505, 0.764, 84.351, -37.476, 96.375, -26.609, -12.442, 96.844, -9.973, 7.267, -159.673, 23.09, -0.72089, 0.08646, 0.23373, -0.64664,
 08:16:57.224,f7:68:33:b1:9e:f1, 2015-01-01 01:02:59.260, -0.062, -0.505, 0.764, 84.351, -37.476, 96.375, -26.301, -12.404, 97.377, -9.973, 7.267, -159.673, 23.09, -0.72089, 0.08646, 0.23373, -0.64664,
 08:16:57.224,f7:68:33:b1:9e:f1, 2015-01-01 01:02:59.260, -0.028, -0.505, 0.764, 84.351, -37.476, 96.375, -25.999, -12.371, 97.91, -9.973, 7.267, -159.673, 23.09, -0.72089, 0.08646, 0.23373, -0.64664,
 08:16:57.225,f7:68:33:b1:9e:f1, 2015-01-01 01:02:59.260, -0.028, -0.381, 0.639, 15.503, -81.482, 70.496, -26.032, -12.585, 98.41, -9.973, 7.267, -159.673, 23.09, -0.72089, 0.08646, 0.23373, -0.64664,
 08:16:57.238,d6:24:01:31:b7:6e, 2015-01-01 00:58:44.060, -0.026, 0.117, 1.843, 101.196, -10.315, 279.175, -2.175, -7.976, 7.822, -16.413, 34.047, -57.353, 24.9, 0.99045, -0.00381, -0.06921, 0.11874,
 08:16:57.254,f7:68:33:b1:9e:f1, 2015-01-01 01:02:59.260, -0.028, -0.381, 0.639, 15.503, -81.482, 70.496, -26.065, -12.805, 98.915, -9.973, 7.267, -159.673, 23.09, -0.72089, 0.08646, 0.23373, -0.64664,
 08:16:57.254,f7:68:33:b1:9e:f1, 2015-01-01 01:02:59.260, -0.028, -0.381, 0.639, 15.503, -81.482, 70.496, -26.104, -13.019, 99.421, -9.973, 7.267, -159.673, 23.09, -0.72089, 0.08646, 0.23373, -0.64664,
 08:16:57.254,f7:68:33:b1:9e:f1, 2015-01-01 01:02:59.260, -0.111, -0.381, 0.639, 15.503, -81.482, 70.496, -26.142, -13.228, 99.926, -9.973, 7.267, -159.673, 23.09, -0.72089, 0.08646, 0.23373, -0.64664,
 08:16:57.254,f7:68:33:b1:9e:f1, 2015-01-01 01:02:59.260, -0.111, -0.469, 0.694, 23.804, -109.985, 47.302, -26.131, -13.618, 100.388, -9.973, 7.267, -159.673, 23.09, -0.72089, 0.08646, 0.23373, -0.64664,
 08:16:57.254,f7:68:33:b1:9e:f1, 2015-01-01 01:02:59.260, -0.111, -0.469, 0.694, 23.804, -109.985, 47.302, -26.125, -14.002, 100.844, -9.973, 7.267, -159.673, 23.09, -0.72089, 0.08646, 0.23373, -0.64664,
 08:16:57.254,f7:68:33:b1:9e:f1, 2015-01-01 01:02:59.260, -0.111, -0.469, 0.694, 23.804, -109.985, 47.302, -26.125, -14.381, 101.305, -9.973, 7.267, -159.673, 23.09, -0.72089, 0.08646, 0.23373, -0.64664,
 08:16:57.254,f7:68:33:b1:9e:f1, 2015-01-01 01:02:59.260, -0.18, -0.469, 0.694, 23.804, -109.985, 47.302, -26.125, -14.76, 101.766, -9.973, 7.267, -159.673, 23.09, -0.72089, 0.08646, 0.23373, -0.64664,
 08:16:57.254,f7:68:33:b1:9e:f1, 2015-01-01 01:02:59.260, -0.18, -0.485, 0.769, 42.542, -111.816, 11.353, -25.999, -15.222, 102.063, -9.973, 7.267, -159.673, 23.09, -0.72089, 0.08646, 0.23373, -0.64664,
 08:16:57.314,f7:68:33:b1:9e:f1, 2015-01-01 01:02:59.620, -0.18, -0.485, 0.769, 42.542, -111.816, 11.353, -25.873, -15.677, 102.354, -9.973, 7.267, -159.673, 23.09, -0.72089, 0.08646, 0.23373, -0.64664,
 08:16:57.314,f7:68:33:b1:9e:f1, 2015-01-01 01:02:59.620, -0.18, -0.485, 0.769, 42.542, -111.816, 11.353, -25.746, -16.133, 102.651, -9.973, 7.267, -159.673, 23.09, -0.72089, 0.08646, 0.23373, -0.64664,
 08:16:57.314,f7:68:33:b1:9e:f1, 2015-01-01 01:02:59.620, -0.123, -0.485, 0.769, 42.542, -111.816, 11.353, -25.626, -16.584, 102.947, -9.973, 7.267, -159.673, 23.09, -0.72089, 0.08646, 0.23373, -0.64664,
 08:16:57.314,f7:68:33:b1:9e:f1, 2015-01-01 01:02:59.620, -0.123, -0.485, 0.8, 33.325, -88.013, -28.259, -25.488, -17.007, 103.002, -9.973, 7.267, -159.673, 23.09, -0.72089, 0.08646, 0.23373, -0.64664,
 08:16:57.314,f7:68:33:b1:9e:f1, 2015-01-01 01:02:59.620, -0.123, -0.485, 0.8, 33.325, -88.013, -28.259, -25.351, -17.424, 103.057, -9.973, 7.267, -159.673, 23.09, -0.72089, 0.08646, 0.23373, -0.64664,
 08:16:57.314,f7:68:33:b1:9e:f1, 2015-01-01 01:02:59.620, -0.123, -0.485, 0.8, 33.325, -88.013, -28.259, -25.208, -17.836, 103.107, -9.973, 7.267, -159.673, 23.09, -0.72089, 0.08646, 0.23373, -0.64664,
 08:16:57.314,f7:68:33:b1:9e:f1, 2015-01-01 01:02:59.620, -0.007, -0.485, 0.8, 33.325, -88.013, -28.259, -25.076, -18.254, 103.162, -9.973, 7.267, -159.673, 23.09, -0.72089, 0.08646, 0.23373, -0.64664,
 08:16:57.314,f7:68:33:b1:9e:f1, 2015-01-01 01:02:59.620, -0.007, -0.461, 0.746, 14.893, -61.035, -63.416, -24.961, -18.611, 102.991, -9.973, 7.267, -159.673, 23.09, -0.72089, 0.08646, 0.23373, -0.64664,
 08:16:57.343,f7:68:33:b1:9e:f1, 2015-01-01 01:02:59.620, -0.007, -0.461, 0.746, 14.893, -61.035, -63.416, -24.846, -18.968, 102.816, -9.973, 7.267, -159.673, 23.09, -0.72089, 0.08646, 0.23373, -0.64664,
 08:16:57.343,f7:68:33:b1:9e:f1, 2015-01-01 01:02:59.620, -0.007, -0.461, 0.746, 14.893, -61.035, -63.416, -24.725, -19.319, 102.64, -9.973, 7.267, -159.673, 23.09, -0.72089, 0.08646, 0.23373, -0.64664,
 08:16:57.343,f7:68:33:b1:9e:f1, 2015-01-01 01:02:59.620, 0.189, -0.461, 0.746, 14.893, -61.035, -63.416, -24.609, -19.671, 102.464, -9.973, 7.267, -159.673, 23.09, -0.72089, 0.08646, 0.23373, -0.64664,
 08:16:57.343,f7:68:33:b1:9e:f1, 2015-01-01 01:02:59.620, 0.189, -0.408, 0.652, 2.197, -64.88, -80.75, -24.532, -20.078, 102.206, -9.973, 7.267, -159.673, 23.09, -0.72089, 0.08646, 0.23373, -0.64664,
 08:16:57.343,f7:68:33:b1:9e:f1, 2015-01-01 01:02:59.620, 0.189, -0.408, 0.652, 2.197, -64.88, -80.75, -24.45, -20.479, 101.953, -9.973, 7.267, -159.673, 23.09, -0.72089, 0.08646, 0.23373, -0.64664,
 08:16:57.343,f7:68:33:b1:9e:f1, 2015-01-01 01:02:59.620, 0.189, -0.408, 0.652, 2.197, -64.88, -80.75, -24.362, -20.88, 101.695, -9.973, 7.267, -159.673, 23.09, -0.72089, 0.08646, 0.23373, -0.64664,
 08:16:57.343,f7:68:33:b1:9e:f1, 2015-01-01 01:02:59.620, 0.333, -0.408, 0.652, 2.197, -64.88, -80.75, -24.28, -21.286, 101.437, -9.973, 7.267, -159.673, 23.09, -0.72089, 0.08646, 0.23373, -0.64664,
 08:16:57.343,f7:68:33:b1:9e:f1, 2015-01-01 01:02:59.620, 0.333, -0.372, 0.617, -5.066, -61.035, -74.036, -24.241, -21.654, 101.206, -9.973, 7.267, -159.673, 23.09, -0.72089, 0.08646, 0.23373, -0.64664,
 08:16:57.357,d6:24:01:31:b7:6e, 2015-01-01 00:58:44.385, 0.275, -0.153, 0.898, 45.166, -60.364, 83.313, -2.351, -9.926, 21.506, -16.413, 34.047, -57.353, 24.9, 0.99045, -0.00381, -0.06921, 0.11874,
 08:16:57.373,f7:68:33:b1:9e:f1, 2015-01-01 01:02:59.620, 0.333, -0.372, 0.617, -5.066, -61.035, -74.036, -24.197, -22.028, 100.97, -9.973, 7.267, -159.673, 23.09, -0.72089, 0.08646, 0.23373, -0.64664,
 08:16:57.373,f7:68:33:b1:9e:f1, 2015-01-01 01:02:59.620, 0.333, -0.372, 0.617, -5.066, -61.035, -74.036, -24.153, -22.407, 100.734, -9.973, 7.267, -159.673, 23.09, -0.72089, 0.08646, 0.23373, -0.64664,
 08:16:57.373,f7:68:33:b1:9e:f1, 2015-01-01 01:02:59.620, 0.434, -0.372, 0.617, -5.066, -61.035, -74.036, -24.109, -22.78, 100.497, -9.973, 7.267, -159.673, 23.09, -0.72089, 0.08646, 0.23373, -0.64664,
 08:16:57.373,f7:68:33:b1:9e:f1, 2015-01-01 01:02:59.620, 0.434, -0.355, 0.608, 11.841, -65.796, -58.289, -24.011, -23.148, 100.355, -9.973, 7.267, -159.673, 23.09, -0.72089, 0.08646, 0.23373, -0.64664,
 08:16:57.373,f7:68:33:b1:9e:f1, 2015-01-01 01:02:59.620, 0.434, -0.355, 0.608, 11.841, -65.796, -58.289, -23.912, -23.522, 100.201, -9.973, 7.267, -159.673, 23.09, -0.72089, 0.08646, 0.23373, -0.64664,
 08:16:57.373,f7:68:33:b1:9e:f1, 2015-01-01 01:02:59.620, 0.434, -0.355, 0.608, 11.841, -65.796, -58.289, -23.813, -23.89, 100.052, -9.973, 7.267, -159.673, 23.09, -0.72089, 0.08646, 0.23373, -0.64664,
 08:16:57.373,f7:68:33:b1:9e:f1, 2015-01-01 01:02:59.620, 0.434, -0.355, 0.608, 11.841, -65.796, -58.289, -23.714, -24.269, 99.904, -9.973, 7.267, -159.673, 23.09, -0.72089, 0.08646, 0.23373, -0.64664,
 08:16:57.373,f7:68:33:b1:9e:f1, 2015-01-01 01:02:59.620, 0.434, -0.336, 0.615, 22.461, -72.51, -43.213, -23.593, -24.642, 99.838, -9.973, 7.267, -159.673, 23.09, -0.72089, 0.08646, 0.23373, -0.64664,
 08:16:57.433,f7:68:33:b1:9e:f1, 2015-01-01 01:02:59.620, 0.434, -0.336, 0.615, 22.461, -72.51, -43.213, -23.478, -25.021, 99.778, -9.973, 7.267, -159.673, 23.09, -0.72089, 0.08646, 0.23373, -0.64664,
 08:16:57.433,f7:68:33:b1:9e:f1, 2015-01-01 01:02:59.620, 0.451, -0.336, 0.615, 22.461, -72.51, -43.213, -23.357, -25.406, 99.712, -9.973, 7.267, -159.673, 23.09, -0.72089, 0.08646, 0.23373, -0.64664,
 08:16:57.433,f7:68:33:b1:9e:f1, 2015-01-01 01:02:59.620, 0.451, -0.316, 0.667, 23.743, -71.716, -29.724, -23.264, -25.757, 99.712, -9.973, 7.267, -159.673, 23.09, -0.72089, 0.08646, 0.23373, -0.64664,
 08:16:57.433,f7:68:33:b1:9e:f1, 2015-01-01 01:02:59.620, 0.451, -0.316, 0.667, 23.743, -71.716, -29.724, -23.165, -26.115, 99.717, -9.973, 7.267, -159.673, 23.09, -0.72089, 0.08646, 0.23373, -0.64664,
 08:16:57.433,f7:68:33:b1:9e:f1, 2015-01-01 01:02:59.620, 0.451, -0.316, 0.667, 23.743, -71.716, -29.724, -23.066, -26.472, 99.717, -9.973, 7.267, -159.673, 23.09, -0.72089, 0.08646, 0.23373, -0.64664,
 08:16:57.433,f7:68:33:b1:9e:f1, 2015-01-01 01:02:59.620, 0.473, -0.316, 0.667, 23.743, -71.716, -29.724, -22.967, -26.829, 99.717, -9.973, 7.267, -159.673, 23.09, -0.72089, 0.08646, 0.23373, -0.64664,
 08:16:57.433,f7:68:33:b1:9e:f1, 2015-01-01 01:02:59.620, 0.473, -0.34, 0.685, 27.039, -48.218, -19.104, -22.857, -27.054, 99.723, -9.973, 7.267, -159.673, 23.09, -0.72089, 0.08646, 0.23373, -0.64664,
 08:16:57.433,f7:68:33:b1:9e:f1, 2015-01-01 01:02:59.620, 0.473, -0.34, 0.685, 27.039, -48.218, -19.104, -22.742, -27.29, 99.734, -9.973, 7.267, -159.673, 23.09, -0.72089, 0.08646, 0.23373, -0.64664,
 08:16:57.447,d6:24:01:31:b7:6e, 2015-01-01 00:58:44.385, 0.385, -0.101, 0.749, 17.944, -77.637, -39.856, 1.708, -16.721, 17.166, -16.413, 34.047, -57.353, 24.9, 0.99045, -0.00381, -0.06921, 0.11874,
 08:16:57.463,f7:68:33:b1:9e:f1, 2015-01-01 01:02:59.620, 0.473, -0.34, 0.685, 27.039, -48.218, -19.104, -22.632, -27.521, 99.739, -9.973, 7.267, -159.673, 23.09, -0.72089, 0.08646, 0.23373, -0.64664,
 08:16:57.463,f7:68:33:b1:9e:f1, 2015-01-01 01:02:59.620, 0.467, -0.34, 0.685, 27.039, -48.218, -19.104, -22.516, -27.757, 99.745, -9.973, 7.267, -159.673, 23.09, -0.72089, 0.08646, 0.23373, -0.64664,
 08:16:57.463,f7:68:33:b1:9e:f1, 2015-01-01 01:02:59.620, 0.467, -0.414, 0.57, 102.844, -10.193, -11.902, -22.011, -27.801, 99.712, -9.973, 7.267, -159.673, 23.09, -0.72089, 0.08646, 0.23373, -0.64664,
 08:16:57.463,f7:68:33:b1:9e:f1, 2015-01-01 01:02:59.620, 0.467, -0.414, 0.57, 102.844, -10.193, -11.902, -21.506, -27.845, 99.679, -9.973, 7.267, -159.673, 23.09, -0.72089, 0.08646, 0.23373, -0.64664,
 08:16:57.463,f7:68:33:b1:9e:f1, 2015-01-01 01:02:59.620, 0.467, -0.414, 0.57, 102.844, -10.193, -11.902, -21, -27.894, 99.646, -9.973, 7.267, -159.673, 23.09, -0.72089, 0.08646, 0.23373, -0.64664,
 08:16:57.463,f7:68:33:b1:9e:f1, 2015-01-01 01:02:59.620, 0.348, -0.414, 0.57, 102.844, -10.193, -11.902, -20.5, -27.944, 99.613, -9.973, 7.267, -159.673, 23.09, -0.72089, 0.08646, 0.23373, -0.64664,
 08:16:57.463,f7:68:33:b1:9e:f1, 2015-01-01 01:02:59.620, 0.348, -0.205, 0.785, 186.401, 6.409, -16.724, -19.556, -27.922, 99.52, -9.973, 7.267, -159.673, 23.09, -0.72089, 0.08646, 0.23373, -0.64664,
 08:16:57.463,f7:68:33:b1:9e:f1, 2015-01-01 01:02:59.620, 0.348, -0.205, 0.785, 186.401, 6.409, -16.724, -18.611, -27.9, 99.432, -9.973, 7.267, -159.673, 23.09, -0.72089, 0.08646, 0.23373, -0.64664,
 08:16:57.524,f7:68:33:b1:9e:f1, 2015-01-01 01:02:59.620, 0.348, -0.205, 0.785, 186.401, 6.409, -16.724, -17.672, -27.878, 99.338, -26.873, -22.987, -165.373, 23.09, -0.72089, 0.08646, 0.23373, -0.64664,
 08:16:57.524,f7:68:33:b1:9e:f1, 2015-01-01 01:02:59.620, 0.235, -0.205, 0.785, 186.401, 6.409, -16.724, -16.727, -27.85, 99.25, -26.873, -22.987, -165.373, 23.09, -0.72089, 0.08646, 0.23373, -0.64664,
 08:16:57.524,f7:68:33:b1:9e:f1, 2015-01-01 01:02:59.620, 0.235, -0.088, 0.803, 91.37, -31.616, -31.311, -16.249, -28.026, 99.135, -26.873, -22.987, -165.373, 23.09, -0.72089, 0.08646, 0.23373, -0.64664,
 08:16:57.524,f7:68:33:b1:9e:f1, 2015-01-01 01:02:59.620, 0.235, -0.088, 0.803, 91.37, -31.616, -31.311, -15.765, -28.196, 99.014, -26.873, -22.987, -165.373, 23.09, -0.72089, 0.08646, 0.23373, -0.64664,
 08:16:57.524,f7:68:33:b1:9e:f1, 2015-01-01 01:02:59.620, 0.235, -0.088, 0.803, 91.37, -31.616, -31.311, -15.282, -28.372, 98.899, -26.873, -22.987, -165.373, 23.09, -0.72089, 0.08646, 0.23373, -0.64664,
 08:16:57.524,f7:68:33:b1:9e:f1, 2015-01-01 01:02:59.620, 0.346, -0.088, 0.803, 91.37, -31.616, -31.311, -14.793, -28.537, 98.778, -26.873, -22.987, -165.373, 23.09, -0.72089, 0.08646, 0.23373, -0.64664,
 08:16:57.524,f7:68:33:b1:9e:f1, 2015-01-01 01:02:59.620, 0.346, -0.112, 0.579, 17.09, -118.958, -44.067, -14.694, -29.147, 98.696, -26.873, -22.987, -165.373, 23.09, -0.72089, 0.08646, 0.23373, -0.64664,
 08:16:57.524,f7:68:33:b1:9e:f1, 2015-01-01 01:02:59.620, 0.346, -0.112, 0.579, 17.09, -118.958, -44.067, -14.59, -29.751, 98.608, -26.873, -22.987, -165.373, 23.09, -0.72089, 0.08646, 0.23373, -0.64664,
 08:16:57.554,f7:68:33:b1:9e:f1, 2015-01-01 01:02:59.620, 0.346, -0.112, 0.579, 17.09, -118.958, -44.067, -14.485, -30.355, 98.525, -26.873, -22.987, -165.373, 23.09, -0.72089, 0.08646, 0.23373, -0.64664,
 08:16:57.554,f7:68:33:b1:9e:f1, 2015-01-01 01:02:59.620, 0.598, -0.112, 0.579, 17.09, -118.958, -44.067, -14.381, -30.959, 98.438, -26.873, -22.987, -165.373, 23.09, -0.72089, 0.08646, 0.23373, -0.64664,
 08:16:57.554,f7:68:33:b1:9e:f1, 2015-01-01 01:02:59.620, 0.598, -0.132, 0.332, 98.267, -96.68, -4.7, -13.969, -31.421, 98.542, -26.873, -22.987, -165.373, 23.09, -0.72089, 0.08646, 0.23373, -0.64664,
 08:16:57.554,f7:68:33:b1:9e:f1, 2015-01-01 01:02:59.620, 0.598, -0.132, 0.332, 98.267, -96.68, -4.7, -13.552, -31.877, 98.646, -26.873, -22.987, -165.373, 23.09, -0.72089, 0.08646, 0.23373, -0.64664,
 08:16:57.554,f7:68:33:b1:9e:f1, 2015-01-01 01:02:59.620, 0.598, -0.132, 0.332, 98.267, -96.68, -4.7, -13.14, -32.344, 98.745, -26.873, -22.987, -165.373, 23.09, -0.72089, 0.08646, 0.23373, -0.64664,
 08:16:57.554,f7:68:33:b1:9e:f1, 2015-01-01 01:02:59.620, 0.563, -0.132, 0.332, 98.267, -96.68, -4.7, -12.728, -32.811, 98.839, -26.873, -22.987, -165.373, 23.09, -0.72089, 0.08646, 0.23373, -0.64664,
 08:16:57.554,f7:68:33:b1:9e:f1, 2015-01-01 01:02:59.620, 0.563, -0.043, 0.667, 137.756, -52.979, -18.86, -12.041, -33.074, 98.8, -26.873, -22.987, -165.373, 23.09, -0.72089, 0.08646, 0.23373, -0.64664,
 08:16:57.554,f7:68:33:b1:9e:f1, 2015-01-01 01:02:59.620, 0.563, -0.043, 0.667, 137.756, -52.979, -18.86, -11.354, -33.344, 98.756, -26.873, -22.987, -165.373, 23.09, -0.72089, 0.08646, 0.23373, -0.64664,
 08:16:57.568,d6:24:01:31:b7:6e, 2015-01-01 00:58:44.385, 0.473, 0.029, 0.836, -3.784, -35.95, 15.259, 3.906, -22.44, 10.849, -32.913, 9.873, -46.820, 24.9, 0.96985, 0.04691, -0.22699, 0.07452,
 08:16:57.584,f7:68:33:b1:9e:f1, 2015-01-01 01:02:59.620, 0.563, -0.043, 0.667, 137.756, -52.979, -18.86, -10.662, -33.607, 98.707, -26.873, -22.987, -165.373, 23.09, -0.64789, -0.13098, 0.25223, -0.70667,
 08:16:57.584,f7:68:33:b1:9e:f1, 2015-01-01 01:02:59.620, 0.386, -0.043, 0.667, 137.756, -52.979, -18.86, -9.97, -33.876, 98.657, -26.873, -22.987, -165.373, 23.09, -0.64789, -0.13098, 0.25223, -0.70667,
 08:16:57.584,f7:68:33:b1:9e:f1, 2015-01-01 01:02:59.620, 0.386, -0.077, 0.761, 129.272, -46.021, -14.16, -9.327, -34.107, 98.619, -26.873, -22.987, -165.373, 23.09, -0.64789, -0.13098, 0.25223, -0.70667,
 08:16:57.584,f7:68:33:b1:9e:f1, 2015-01-01 01:02:59.620, 0.386, -0.077, 0.761, 129.272, -46.021, -14.16, -8.685, -34.332, 98.586, -26.873, -22.987, -165.373, 23.09, -0.64789, -0.13098, 0.25223, -0.70667,
 08:16:57.584,f7:68:33:b1:9e:f1, 2015-01-01 01:02:59.620, 0.386, -0.077, 0.761, 129.272, -46.021, -14.16, -8.036, -34.557, 98.542, -26.873, -22.987, -165.373, 23.09, -0.64789, -0.13098, 0.25223, -0.70667,
 08:16:57.584,f7:68:33:b1:9e:f1, 2015-01-01 01:02:59.620, 0.496, -0.077, 0.761, 129.272, -46.021, -14.16, -7.394, -34.783, 98.498, -26.873, -22.987, -165.373, 23.09, -0.64789, -0.13098, 0.25223, -0.70667,
 08:16:57.584,f7:68:33:b1:9e:f1, 2015-01-01 01:02:59.620, 0.496, -0.143, 0.702, 136.475, -56.641, -9.888, -6.729, -35.057, 98.487, -26.873, -22.987, -165.373, 23.09, -0.64789, -0.13098, 0.25223, -0.70667,
 08:16:57.584,f7:68:33:b1:9e:f1, 2015-01-01 01:02:59.620, 0.496, -0.143, 0.702, 136.475, -56.641, -9.888, -6.059, -35.327, 98.465, -26.873, -22.987, -165.373, 23.09, -0.64789, -0.13098, 0.25223, -0.70667,
 08:16:57.645,f7:68:33:b1:9e:f1, 2015-01-01 01:02:59.620, 0.496, -0.143, 0.702, 136.475, -56.641, -9.888, -5.394, -35.601, 98.443, -26.873, -22.987, -165.373, 23.09, -0.64789, -0.13098, 0.25223, -0.70667,
 08:16:57.645,f7:68:33:b1:9e:f1, 2015-01-01 01:02:59.620, 0.755, -0.143, 0.702, 136.475, -56.641, -9.888, -4.724, -35.876, 98.416, -26.873, -22.987, -165.373, 23.09, -0.64789, -0.13098, 0.25223, -0.70667,
 08:16:57.645,f7:68:33:b1:9e:f1, 2015-01-01 01:02:59.620, 0.755, 0.137, 0.864, 86.426, -14.099, -18.616, -4.263, -35.936, 98.322, -26.873, -22.987, -165.373, 23.09, -0.64789, -0.13098, 0.25223, -0.70667,
 08:16:57.645,f7:68:33:b1:9e:f1, 2015-01-01 01:02:59.620, 0.755, 0.137, 0.864, 86.426, -14.099, -18.616, -3.796, -36.002, 98.223, -26.873, -22.987, -165.373, 23.09, -0.64789, -0.13098, 0.25223, -0.70667,
 08:16:57.645,f7:68:33:b1:9e:f1, 2015-01-01 01:02:59.620, 0.755, 0.137, 0.864, 86.426, -14.099, -18.616, -3.329, -36.068, 98.124, -26.873, -22.987, -165.373, 23.09, -0.64789, -0.13098, 0.25223, -0.70667,
 08:16:57.645,f7:68:33:b1:9e:f1, 2015-01-01 01:02:59.620, 0.57, 0.137, 0.864, 86.426, -14.099, -18.616, -2.856, -36.134, 98.026, -26.873, -22.987, -165.373, 23.09, -0.64789, -0.13098, 0.25223, -0.70667,
 08:16:57.645,f7:68:33:b1:9e:f1, 2015-01-01 01:02:59.620, 0.57, 0.046, 0.763, 68.298, 13.123, -18.555, -2.472, -36.068, 97.921, -26.873, -22.987, -165.373, 23.09, -0.64789, -0.13098, 0.25223, -0.70667,
 08:16:57.645,f7:68:33:b1:9e:f1, 2015-01-01 01:02:59.620, 0.57, 0.046, 0.763, 68.298, 13.123, -18.555, -2.087, -35.997, 97.817, -26.873, -22.987, -165.373, 23.09, -0.64789, -0.13098, 0.25223, -0.70667,
 08:16:57.657,d6:24:01:31:b7:6e, 2015-01-01 00:58:44.745, 0.485, 0.066, 0.714, 25.391, -29.724, 22.522, 3.812, -27.202, 7.63, -32.913, 9.873, -46.820, 24.9, 0.96985, 0.04691, -0.22699, 0.07452,
 08:16:57.673,f7:68:33:b1:9e:f1, 2015-01-01 01:02:59.975, 0.57, 0.046, 0.763, 68.298, 13.123, -18.555, -1.708, -35.925, 97.718, -26.873, -22.987, -165.373, 23.09, -0.64789, -0.13098, 0.25223, -0.70667,
 08:16:57.673,f7:68:33:b1:9e:f1, 2015-01-01 01:02:59.975, 0.576, 0.046, 0.763, 68.298, 13.123, -18.555, -1.324, -35.859, 97.614, -26.873, -22.987, -165.373, 23.09, -0.64789, -0.13098, 0.25223, -0.70667,
 08:16:57.673,f7:68:33:b1:9e:f1, 2015-01-01 01:02:59.975, 0.576, 0.026, 0.702, 53.223, 21.423, -23.438, -1, -35.75, 97.487, -26.873, -22.987, -165.373, 23.09, -0.64789, -0.13098, 0.25223, -0.70667,
 08:16:57.673,f7:68:33:b1:9e:f1, 2015-01-01 01:02:59.975, 0.576, 0.026, 0.702, 53.223, 21.423, -23.438, -0.67, -35.64, 97.355, -26.873, -22.987, -165.373, 23.09, -0.64789, -0.13098, 0.25223, -0.70667,
 08:16:57.673,f7:68:33:b1:9e:f1, 2015-01-01 01:02:59.975, 0.576, 0.026, 0.702, 53.223, 21.423, -23.438, -0.346, -35.53, 97.224, -26.873, -22.987, -165.373, 23.09, -0.64789, -0.13098, 0.25223, -0.70667,
 08:16:57.673,f7:68:33:b1:9e:f1, 2015-01-01 01:02:59.975, 0.568, 0.026, 0.702, 53.223, 21.423, -23.438, -0.022, -35.42, 97.097, -26.873, -22.987, -165.373, 23.09, -0.64789, -0.13098, 0.25223, -0.70667,
 08:16:57.673,f7:68:33:b1:9e:f1, 2015-01-01 01:02:59.975, 0.568, 0.024, 0.707, 41.321, 28.381, -37.964, 0.297, -35.272, 96.883, -26.873, -22.987, -165.373, 23.09, -0.64789, -0.13098, 0.25223, -0.70667,
 08:16:57.673,f7:68:33:b1:9e:f1, 2015-01-01 01:02:59.975, 0.568, 0.024, 0.707, 41.321, 28.381, -37.964, 0.61, -35.129, 96.669, -26.873, -22.987, -165.373, 23.09, -0.64789, -0.13098, 0.25223, -0.70667,
 08:16:57.702,f7:68:33:b1:9e:f1, 2015-01-01 01:02:59.975, 0.568, 0.024, 0.707, 41.321, 28.381, -37.964, 0.923, -34.98, 96.46, -26.873, -22.987, -165.373, 23.09, -0.64789, -0.13098, 0.25223, -0.70667,
 08:16:57.702,f7:68:33:b1:9e:f1, 2015-01-01 01:02:59.975, 0.57, 0.024, 0.707, 41.321, 28.381, -37.964, 1.236, -34.832, 96.246, -26.873, -22.987, -165.373, 23.09, -0.64789, -0.13098, 0.25223, -0.70667,
 08:16:57.702,f7:68:33:b1:9e:f1, 2015-01-01 01:02:59.975, 0.57, 0.067, 0.716, 32.837, 18.005, -31.799, 1.483, -34.739, 96.07, -26.873, -22.987, -165.373, 23.09, -0.64789, -0.13098, 0.25223, -0.70667,
 08:16:57.702,f7:68:33:b1:9e:f1, 2015-01-01 01:02:59.975, 0.57, 0.067, 0.716, 32.837, 18.005, -31.799, 1.73, -34.645, 95.894, -26.873, -22.987, -165.373, 23.09, -0.64789, -0.13098, 0.25223, -0.70667,
 08:16:57.702,f7:68:33:b1:9e:f1, 2015-01-01 01:02:59.975, 0.57, 0.067, 0.716, 32.837, 18.005, -31.799, 1.983, -34.557, 95.718, -26.873, -22.987, -165.373, 23.09, -0.64789, -0.13098, 0.25223, -0.70667,
 08:16:57.702,f7:68:33:b1:9e:f1, 2015-01-01 01:02:59.975, 0.607, 0.067, 0.716, 32.837, 18.005, -31.799, 2.23, -34.464, 95.548, -26.873, -22.987, -165.373, 23.09, -0.64789, -0.13098, 0.25223, -0.70667,
 08:16:57.702,f7:68:33:b1:9e:f1, 2015-01-01 01:02:59.975, 0.607, 0.081, 0.716, 33.081, -1.343, -16.907, 2.439, -34.47, 95.455, -26.873, -22.987, -165.373, 23.09, -0.64789, -0.13098, 0.25223, -0.70667,
 08:16:57.702,f7:68:33:b1:9e:f1, 2015-01-01 01:02:59.975, 0.607, 0.081, 0.716, 33.081, -1.343, -16.907, 2.642, -34.481, 95.361, -26.873, -22.987, -165.373, 23.09, -0.64789, -0.13098, 0.25223, -0.70667,
 08:16:57.762,f7:68:33:b1:9e:f1, 2015-01-01 01:02:59.975, 0.607, 0.081, 0.716, 33.081, -1.343, -16.907, 2.851, -34.486, 95.268, -26.873, -22.987, -165.373, 23.09, -0.64789, -0.13098, 0.25223, -0.70667,
 08:16:57.762,f7:68:33:b1:9e:f1, 2015-01-01 01:02:59.975, 0.595, 0.081, 0.716, 33.081, -1.343, -16.907, 3.06, -34.497, 95.175, -26.873, -22.987, -165.373, 23.09, -0.64789, -0.13098, 0.25223, -0.70667,
 08:16:57.762,f7:68:33:b1:9e:f1, 2015-01-01 01:02:59.975, 0.595, 0.1, 0.753, 34.79, -4.089, -10.559, 3.252, -34.525, 95.12, -26.873, -22.987, -165.373, 23.09, -0.64789, -0.13098, 0.25223, -0.70667,
 08:16:57.762,f7:68:33:b1:9e:f1, 2015-01-01 01:02:59.975, 0.595, 0.1, 0.753, 34.79, -4.089, -10.559, 3.45, -34.547, 95.065, -26.873, -22.987, -165.373, 23.09, -0.64789, -0.13098, 0.25223, -0.70667,
 08:16:57.762,f7:68:33:b1:9e:f1, 2015-01-01 01:02:59.975, 0.595, 0.1, 0.753, 34.79, -4.089, -10.559, 3.647, -34.574, 95.01, -26.873, -22.987, -165.373, 23.09, -0.64789, -0.13098, 0.25223, -0.70667,
 08:16:57.762,f7:68:33:b1:9e:f1, 2015-01-01 01:02:59.975, 0.576, 0.1, 0.753, 34.79, -4.089, -10.559, 3.845, -34.596, 94.955, -26.873, -22.987, -165.373, 23.09, -0.64789, -0.13098, 0.25223, -0.70667,
 08:16:57.762,f7:68:33:b1:9e:f1, 2015-01-01 01:02:59.975, 0.576, 0.11, 0.732, 18.066, 4.333, -10.803, 3.955, -34.579, 94.9, -26.873, -22.987, -165.373, 23.09, -0.64789, -0.13098, 0.25223, -0.70667,
 08:16:57.762,f7:68:33:b1:9e:f1, 2015-01-01 01:02:59.975, 0.576, 0.11, 0.732, 18.066, 4.333, -10.803, 4.07, -34.563, 94.85, -26.873, -22.987, -165.373, 23.09, -0.64789, -0.13098, 0.25223, -0.70667,
 08:16:57.776,d6:24:01:31:b7:6e, 2015-01-01 00:58:44.745, 0.491, 0.042, 0.771, -19.409, 12.512, 15.137, 4.186, -28.229, 5.532, -32.913, 9.873, -46.820, 24.9, 0.96985, 0.04691, -0.22699, 0.07452,
 08:16:57.794,f7:68:33:b1:9e:f1, 2015-01-01 01:02:59.975, 0.576, 0.11, 0.732, 18.066, 4.333, -10.803, 4.186, -34.547, 94.796, -26.873, -22.987, -165.373, 23.09, -0.64789, -0.13098, 0.25223, -0.70667,
 08:16:57.794,f7:68:33:b1:9e:f1, 2015-01-01 01:02:59.975, 0.585, 0.11, 0.732, 18.066, 4.333, -10.803, 4.301, -34.53, 94.741, -26.873, -22.987, -165.373, 23.09, -0.64789, -0.13098, 0.25223, -0.70667,
 08:16:57.794,f7:68:33:b1:9e:f1, 2015-01-01 01:02:59.975, 0.585, 0.085, 0.691, 7.69, -4.578, -7.141, 4.351, -34.557, 94.708, -26.873, -22.987, -165.373, 23.09, -0.64789, -0.13098, 0.25223, -0.70667,
 08:16:57.794,f7:68:33:b1:9e:f1, 2015-01-01 01:02:59.975, 0.585, 0.085, 0.691, 7.69, -4.578, -7.141, 4.406, -34.585, 94.669, -26.873, -22.987, -165.373, 23.09, -0.64789, -0.13098, 0.25223, -0.70667,
 08:16:57.794,f7:68:33:b1:9e:f1, 2015-01-01 01:02:59.975, 0.585, 0.085, 0.691, 7.69, -4.578, -7.141, 4.46, -34.618, 94.636, -26.873, -22.987, -165.373, 23.09, -0.64789, -0.13098, 0.25223, -0.70667,
 08:16:57.794,f7:68:33:b1:9e:f1, 2015-01-01 01:02:59.975, 0.605, 0.085, 0.691, 7.69, -4.578, -7.141, 4.521, -34.645, 94.598, -26.873, -22.987, -165.373, 23.09, -0.64789, -0.13098, 0.25223, -0.70667,
 08:16:57.794,f7:68:33:b1:9e:f1, 2015-01-01 01:02:59.975, 0.605, 0.083, 0.674, -7.324, -15.259, -5.859, 4.499, -34.733, 94.565, -26.873, -22.987, -165.373, 23.09, -0.64789, -0.13098, 0.25223, -0.70667,
 08:16:57.794,f7:68:33:b1:9e:f1, 2015-01-01 01:02:59.975, 0.605, 0.083, 0.674, -7.324, -15.259, -5.859, 4.482, -34.816, 94.526, -26.873, -22.987, -165.373, 23.09, -0.64789, -0.13098, 0.25223, -0.70667,
 08:16:57.824,f7:68:33:b1:9e:f1, 2015-01-01 01:02:59.975, 0.605, 0.083, 0.674, -7.324, -15.259, -5.859, 4.46, -34.898, 94.493, -26.873, -22.987, -165.373, 23.09, -0.64789, -0.13098, 0.25223, -0.70667,
 08:16:57.824,f7:68:33:b1:9e:f1, 2015-01-01 01:02:59.975, 0.609, 0.083, 0.674, -7.324, -15.259, -5.859, 4.444, -34.986, 94.455, -26.873, -22.987, -165.373, 23.09, -0.64789, -0.13098, 0.25223, -0.70667,
 08:16:57.824,f7:68:33:b1:9e:f1, 2015-01-01 01:02:59.975, 0.609, 0.104, 0.716, -12.268, -10.315, -10.925, 4.422, -35.041, 94.395, -26.873, -22.987, -165.373, 23.09, -0.64789, -0.13098, 0.25223, -0.70667,
 08:16:57.824,f7:68:33:b1:9e:f1, 2015-01-01 01:02:59.975, 0.609, 0.104, 0.716, -12.268, -10.315, -10.925, 4.395, -35.101, 94.329, -26.873, -22.987, -165.373, 23.09, -0.64789, -0.13098, 0.25223, -0.70667,
 08:16:57.824,f7:68:33:b1:9e:f1, 2015-01-01 01:02:59.975, 0.609, 0.104, 0.716, -12.268, -10.315, -10.925, 4.373, -35.156, 94.268, -26.873, -22.987, -165.373, 23.09, -0.64789, -0.13098, 0.25223, -0.70667,
 08:16:57.824,f7:68:33:b1:9e:f1, 2015-01-01 01:02:59.975, 0.575, 0.104, 0.716, -12.268, -10.315, -10.925, 4.351, -35.217, 94.202, -26.873, -22.987, -165.373, 23.09, -0.64789, -0.13098, 0.25223, -0.70667,
 08:16:57.824,f7:68:33:b1:9e:f1, 2015-01-01 01:02:59.975, 0.575, 0.111, 0.75, -8.118, -27.1, 4.822, 4.296, -35.365, 94.224, -26.873, -22.987, -165.373, 23.09, -0.64789, -0.13098, 0.25223, -0.70667,
 08:16:57.824,f7:68:33:b1:9e:f1, 2015-01-01 01:02:59.975, 0.575, 0.111, 0.75, -8.118, -27.1, 4.822, 4.246, -35.513, 94.246, -26.873, -22.987, -165.373, 23.09, -0.64789, -0.13098, 0.25223, -0.70667,
 08:16:57.836,d6:24:01:31:b7:6e, 2015-01-01 00:58:44.745, 0.369, -0.037, 0.771, -53.955, 54.321, 13.855, -0.099, -24.884, 4.938, -28.260, 11.747, -42.800, 24.9, 0.96985, 0.04691, -0.22699, 0.07452,
 08:16:57.884,f7:68:33:b1:9e:f1, 2015-01-01 01:02:59.975, 0.575, 0.111, 0.75, -8.118, -27.1, 4.822, 4.197, -35.656, 94.268, -26.873, -22.987, -165.373, 23.09, -0.64789, -0.13098, 0.25223, -0.70667,
 08:16:57.884,f7:68:33:b1:9e:f1, 2015-01-01 01:02:59.975, 0.635, 0.111, 0.75, -8.118, -27.1, 4.822, 4.147, -35.804, 94.29, -26.873, -22.987, -165.373, 23.09, -0.64789, -0.13098, 0.25223, -0.70667,
 08:16:57.884,f7:68:33:b1:9e:f1, 2015-01-01 01:02:59.975, 0.635, 0.09, 0.795, -4.7, -29.114, 0.916, 4.131, -35.958, 94.285, -26.873, -22.987, -165.373, 23.09, -0.64789, -0.13098, 0.25223, -0.70667,
 08:16:57.884,f7:68:33:b1:9e:f1, 2015-01-01 01:02:59.975, 0.635, 0.09, 0.795, -4.7, -29.114, 0.916, 4.114, -36.112, 94.285, -26.873, -22.987, -165.373, 23.09, -0.64789, -0.13098, 0.25223, -0.70667,
 08:16:57.884,f7:68:33:b1:9e:f1, 2015-01-01 01:02:59.975, 0.635, 0.09, 0.795, -4.7, -29.114, 0.916, 4.098, -36.266, 94.279, -26.873, -22.987, -165.373, 23.09, -0.64789, -0.13098, 0.25223, -0.70667,
 08:16:57.884,f7:68:33:b1:9e:f1, 2015-01-01 01:02:59.975, 0.631, 0.09, 0.795, -4.7, -29.114, 0.916, 4.081, -36.42, 94.274, -26.873, -22.987, -165.373, 23.09, -0.64789, -0.13098, 0.25223, -0.70667,
 08:16:57.884,f7:68:33:b1:9e:f1, 2015-01-01 01:02:59.975, 0.631, 0.088, 0.799, -9.094, -23.621, -11.475, 4.087, -36.535, 94.202, -26.873, -22.987, -165.373, 23.09, -0.64789, -0.13098, 0.25223, -0.70667,
 08:16:57.884,f7:68:33:b1:9e:f1, 2015-01-01 01:02:59.975, 0.631, 0.088, 0.799, -9.094, -23.621, -11.475, 4.092, -36.656, 94.125, -26.873, -22.987, -165.373, 23.09, -0.64789, -0.13098, 0.25223, -0.70667,
 08:16:57.914,f7:68:33:b1:9e:f1, 2015-01-01 01:02:59.975, 0.631, 0.088, 0.799, -9.094, -23.621, -11.475, 4.098, -36.771, 94.048, -32.773, -47.013, -168.713, 23.09, -0.64789, -0.13098, 0.25223, -0.70667,
 08:16:57.914,f7:68:33:b1:9e:f1, 2015-01-01 01:02:59.975, 0.636, 0.088, 0.799, -9.094, -23.621, -11.475, 4.103, -36.887, 93.972, -32.773, -47.013, -168.713, 23.09, -0.64789, -0.13098, 0.25223, -0.70667,
 08:16:57.914,f7:68:33:b1:9e:f1, 2015-01-01 01:02:59.975, 0.636, 0.09, 0.821, -4.7, -31.311, -20.325, 4.169, -37.04, 93.834, -32.773, -47.013, -168.713, 23.09, -0.64789, -0.13098, 0.25223, -0.70667,
 08:16:57.914,f7:68:33:b1:9e:f1, 2015-01-01 01:02:59.975, 0.636, 0.09, 0.821, -4.7, -31.311, -20.325, 4.23, -37.189, 93.697, -32.773, -47.013, -168.713, 23.09, -0.64789, -0.13098, 0.25223, -0.70667,
 08:16:57.914,f7:68:33:b1:9e:f1, 2015-01-01 01:02:59.975, 0.656, 0.09, 0.821, -4.7, -31.311, -20.325, 4.296, -37.337, 93.56, -32.773, -47.013, -168.713, 23.09, -0.64789, -0.13098, 0.25223, -0.70667,
 08:16:57.914,f7:68:33:b1:9e:f1, 2015-01-01 01:02:59.975, 0.656, 0.104, 0.836, -9.521, -36.743, -26.917, 4.367, -37.507, 93.378, -32.773, -47.013, -168.713, 23.09, -0.64789, -0.13098, 0.25223, -0.70667,
 08:16:57.914,f7:68:33:b1:9e:f1, 2015-01-01 01:02:59.975, 0.656, 0.104, 0.836, -9.521, -36.743, -26.917, 4.433, -37.678, 93.192, -32.773, -47.013, -168.713, 23.09, -0.64789, -0.13098, 0.25223, -0.70667,
 08:16:57.915,f7:68:33:b1:9e:f1, 2015-01-01 01:02:59.975, 0.656, 0.104, 0.836, -9.521, -36.743, -26.917, 4.504, -37.848, 93.005, -32.773, -47.013, -168.713, 23.09, -0.64789, -0.13098, 0.25223, -0.70667,
 08:16:57.943,f7:68:33:b1:9e:f1, 2015-01-01 01:02:59.975, 0.695, 0.104, 0.836, -9.521, -36.743, -26.917, 4.576, -38.018, 92.823, -32.773, -47.013, -168.713, 23.09, -0.64789, -0.13098, 0.25223, -0.70667,
 08:16:57.943,f7:68:33:b1:9e:f1, 2015-01-01 01:02:59.975, 0.695, 0.109, 0.852, -19.226, -50.293, -31.189, 4.62, -38.249, 92.598, -32.773, -47.013, -168.713, 23.09, -0.64789, -0.13098, 0.25223, -0.70667,
 08:16:57.943,f7:68:33:b1:9e:f1, 2015-01-01 01:02:59.975, 0.695, 0.109, 0.852, -19.226, -50.293, -31.189, 4.669, -38.485, 92.373, -32.773, -47.013, -168.713, 23.09, -0.64789, -0.13098, 0.25223, -0.70667,
 08:16:57.943,f7:68:33:b1:9e:f1, 2015-01-01 01:02:59.975, 0.695, 0.109, 0.852, -19.226, -50.293, -31.189, 4.719, -38.716, 92.153, -32.773, -47.013, -168.713, 23.09, -0.64789, -0.13098, 0.25223, -0.70667,
 08:16:57.943,f7:68:33:b1:9e:f1, 2015-01-01 01:02:59.975, 0.745, 0.109, 0.852, -19.226, -50.293, -31.189, 4.768, -38.947, 91.923, -32.773, -47.013, -168.713, 23.09, -0.64789, -0.13098, 0.25223, -0.70667,
 08:16:57.943,f7:68:33:b1:9e:f1, 2015-01-01 01:02:59.975, 0.745, 0.083, 0.786, -32.166, -60.608, -26.367, 4.741, -39.232, 91.719, -32.773, -47.013, -168.713, 23.09, -0.64789, -0.13098, 0.25223, -0.70667,
 08:16:57.944,f7:68:33:b1:9e:f1, 2015-01-01 01:02:59.975, 0.745, 0.083, 0.786, -32.166, -60.608, -26.367, 4.713, -39.512, 91.516, -32.773, -47.013, -168.713, 23.09, -0.64789, -0.13098, 0.25223, -0.70667,
 08:16:57.944,f7:68:33:b1:9e:f1, 2015-01-01 01:02:59.975, 0.745, 0.083, 0.786, -32.166, -60.608, -26.367, 4.686, -39.798, 91.313, -32.773, -47.013, -168.713, 23.09, -0.64789, -0.13098, 0.25223, -0.70667,
 08:16:57.958,d6:24:01:31:b7:6e, 2015-01-01 00:58:44.745, 0.424, -0.073, 0.941, -10.62, 16.357, 1.77, -2.241, -18.523, 2.889, -28.260, 11.747, -42.800, 24.9, 0.98663, -0.01642, -0.1604, 0.02087,
 08:16:58.004,f7:68:33:b1:9e:f1, 2015-01-01 01:02:59.975, 0.723, 0.083, 0.786, -32.166, -60.608, -26.367, 4.664, -40.084, 91.11, -32.773, -47.013, -168.713, 23.09, -0.64084, -0.27597, 0.19141, -0.69025,
 08:16:58.004,f7:68:33:b1:9e:f1, 2015-01-01 01:02:59.975, 0.723, 0.092, 0.748, -11.292, -57.373, -33.142, 4.774, -40.347, 90.857, -32.773, -47.013, -168.713, 23.09, -0.64084, -0.27597, 0.19141, -0.69025,
 08:16:58.004,f7:68:33:b1:9e:f1, 2015-01-01 01:02:59.975, 0.723, 0.092, 0.748, -11.292, -57.373, -33.142, 4.883, -40.611, 90.61, -32.773, -47.013, -168.713, 23.09, -0.64084, -0.27597, 0.19141, -0.69025,
 08:16:58.004,f7:68:33:b1:9e:f1, 2015-01-01 01:02:59.975, 0.723, 0.092, 0.748, -11.292, -57.373, -33.142, 4.993, -40.875, 90.357, -32.773, -47.013, -168.713, 23.09, -0.64084, -0.27597, 0.19141, -0.69025,
 08:16:58.004,f7:68:33:b1:9e:f1, 2015-01-01 01:02:59.975, 0.658, 0.092, 0.748, -11.292, -57.373, -33.142, 5.109, -41.138, 90.104, -32.773, -47.013, -168.713, 23.09, -0.64084, -0.27597, 0.19141, -0.69025,
 08:16:58.004,f7:68:33:b1:9e:f1, 2015-01-01 01:02:59.975, 0.658, 0.116, 0.689, -17.395, -51.27, -30.334, 5.18, -41.375, 89.874, -32.773, -47.013, -168.713, 23.09, -0.64084, -0.27597, 0.19141, -0.69025,
 08:16:58.005,f7:68:33:b1:9e:f1, 2015-01-01 01:02:59.975, 0.658, 0.116, 0.689, -17.395, -51.27, -30.334, 5.251, -41.605, 89.637, -32.773, -47.013, -168.713, 23.09, -0.64084, -0.27597, 0.19141, -0.69025,
 08:16:58.005,f7:68:33:b1:9e:f1, 2015-01-01 01:02:59.975, 0.658, 0.116, 0.689, -17.395, -51.27, -30.334, 5.323, -41.836, 89.407, -32.773, -47.013, -168.713, 23.09, -0.64084, -0.27597, 0.19141, -0.69025,
 08:16:58.035,f7:68:33:b1:9e:f1, 2015-01-01 01:02:59.975, 0.66, 0.116, 0.689, -17.395, -51.27, -30.334, 5.4, -42.067, 89.171, -32.773, -47.013, -168.713, 23.09, -0.64084, -0.27597, 0.19141, -0.69025,
 08:16:58.035,f7:68:33:b1:9e:f1, 2015-01-01 01:02:59.975, 0.66, 0.134, 0.687, -23.621, -41.321, -29.419, 5.433, -42.253, 88.945, -32.773, -47.013, -168.713, 23.09, -0.64084, -0.27597, 0.19141, -0.69025,
 08:16:58.035,f7:68:33:b1:9e:f1, 2015-01-01 01:02:59.975, 0.66, 0.134, 0.687, -23.621, -41.321, -29.419, 5.471, -42.435, 88.726, -32.773, -47.013, -168.713, 23.09, -0.64084, -0.27597, 0.19141, -0.69025,
 08:16:58.035,f7:68:33:b1:9e:f1, 2015-01-01 01:02:59.975, 0.66, 0.134, 0.687, -23.621, -41.321, -29.419, 5.51, -42.616, 88.5, -32.773, -47.013, -168.713, 23.09, -0.64084, -0.27597, 0.19141, -0.69025,
 08:16:58.035,f7:68:33:b1:9e:f1, 2015-01-01 01:02:59.975, 0.71, 0.134, 0.687, -23.621, -41.321, -29.419, 5.554, -42.797, 88.275, -32.773, -47.013, -168.713, 23.09, -0.64084, -0.27597, 0.19141, -0.69025,
 08:16:58.035,f7:68:33:b1:9e:f1, 2015-01-01 01:02:59.975, 0.71, 0.139, 0.736, -15.747, -35.339, -27.222, 5.62, -42.951, 88.072, -32.773, -47.013, -168.713, 23.09, -0.64084, -0.27597, 0.19141, -0.69025,
 08:16:58.036,f7:68:33:b1:9e:f1, 2015-01-01 01:02:59.975, 0.71, 0.139, 0.736, -15.747, -35.339, -27.222, 5.691, -43.105, 87.863, -32.773, -47.013, -168.713, 23.09, -0.64084, -0.27597, 0.19141, -0.69025,
 08:16:58.036,f7:68:33:b1:9e:f1, 2015-01-01 01:02:59.975, 0.71, 0.139, 0.736, -15.747, -35.339, -27.222, 5.762, -43.259, 87.66, -32.773, -47.013, -168.713, 23.09, -0.64084, -0.27597, 0.19141, -0.69025,
 08:16:58.048,d6:24:01:31:b7:6e, 2015-01-01 00:58:45.100, 0.247, -0.08, 0.922, -40.894, 26.55, 11.597, -4.922, -18.276, 1.763, -28.260, 11.747, -42.800, 24.9, 0.98663, -0.01642, -0.1604, 0.02087,
 08:16:58.064,f7:68:33:b1:9e:f1, 2015-01-01 01:02:59.975, 0.735, 0.139, 0.736, -15.747, -35.339, -27.222, 5.834, -43.412, 87.451, -32.773, -47.013, -168.713, 23.09, -0.64084, -0.27597, 0.19141, -0.69025,
 08:16:58.064,f7:68:33:b1:9e:f1, 2015-01-01 01:02:59.975, 0.735, 0.14, 0.735, -6.836, -35.889, -29.724, 5.96, -43.561, 87.226, -32.773, -47.013, -168.713, 23.09, -0.64084, -0.27597, 0.19141, -0.69025,
 08:16:58.064,f7:68:33:b1:9e:f1, 2015-01-01 01:02:59.975, 0.735, 0.14, 0.735, -6.836, -35.889, -29.724, 6.092, -43.715, 86.995, -32.773, -47.013, -168.713, 23.09, -0.64084, -0.27597, 0.19141, -0.69025,
 08:16:58.064,f7:68:33:b1:9e:f1, 2015-01-01 01:02:59.975, 0.735, 0.14, 0.735, -6.836, -35.889, -29.724, 6.224, -43.868, 86.77, -32.773, -47.013, -168.713, 23.09, -0.64084, -0.27597, 0.19141, -0.69025,
 08:16:58.064,f7:68:33:b1:9e:f1, 2015-01-01 01:02:59.975, 0.731, 0.14, 0.735, -6.836, -35.889, -29.724, 6.356, -44.017, 86.539, -32.773, -47.013, -168.713, 23.09, -0.64084, -0.27597, 0.19141, -0.69025,
 08:16:58.064,f7:68:33:b1:9e:f1, 2015-01-01 01:02:59.975, 0.731, 0.154, 0.694, -2.136, -33.936, -28.931, 6.504, -44.16, 86.314, -32.773, -47.013, -168.713, 23.09, -0.64084, -0.27597, 0.19141, -0.69025,
 08:16:58.065,f7:68:33:b1:9e:f1, 2015-01-01 01:02:59.975, 0.731, 0.154, 0.694, -2.136, -33.936, -28.931, 6.658, -44.302, 86.089, -32.773, -47.013, -168.713, 23.09, -0.64084, -0.27597, 0.19141, -0.69025,
 08:16:58.065,f7:68:33:b1:9e:f1, 2015-01-01 01:02:59.975, 0.731, 0.154, 0.694, -2.136, -33.936, -28.931, 6.817, -44.445, 85.864, -32.773, -47.013, -168.713, 23.09, -0.64084, -0.27597, 0.19141, -0.69025,
 08:16:58.124,f7:68:33:b1:9e:f1, 2015-01-01 01:02:59.975, 0.698, 0.154, 0.694, -2.136, -33.936, -28.931, 6.971, -44.588, 85.638, -32.773, -47.013, -168.713, 23.75, -0.64084, -0.27597, 0.19141, -0.69025,
 08:16:58.124,f7:68:33:b1:9e:f1, 2015-01-01 01:02:59.975, 0.698, 0.169, 0.658, -3.052, -19.592, -29.663, 7.114, -44.654, 85.419, -32.773, -47.013, -168.713, 23.75, -0.64084, -0.27597, 0.19141, -0.69025,
 08:16:58.124,f7:68:33:b1:9e:f1, 2015-01-01 01:02:59.975, 0.698, 0.169, 0.658, -3.052, -19.592, -29.663, 7.262, -44.725, 85.204, -32.773, -47.013, -168.713, 23.75, -0.64084, -0.27597, 0.19141, -0.69025,
 08:16:58.124,f7:68:33:b1:9e:f1, 2015-01-01 01:02:59.975, 0.698, 0.169, 0.658, -3.052, -19.592, -29.663, 7.41, -44.791, 84.985, -32.773, -47.013, -168.713, 23.75, -0.64084, -0.27597, 0.19141, -0.69025,
 08:16:58.124,f7:68:33:b1:9e:f1, 2015-01-01 01:02:59.975, 0.67, 0.169, 0.658, -3.052, -19.592, -29.663, 7.559, -44.863, 84.765, -32.773, -47.013, -168.713, 23.75, -0.64084, -0.27597, 0.19141, -0.69025,
 08:16:58.124,f7:68:33:b1:9e:f1, 2015-01-01 01:02:59.975, 0.67, 0.184, 0.672, -8.484, -16.968, -18.066, 7.619, -44.929, 84.628, -32.773, -47.013, -168.713, 23.75, -0.64084, -0.27597, 0.19141, -0.69025,
 08:16:58.124,f7:68:33:b1:9e:f1, 2015-01-01 01:02:59.975, 0.67, 0.184, 0.672, -8.484, -16.968, -18.066, 7.679, -44.995, 84.49, -32.773, -47.013, -168.713, 23.75, -0.64084, -0.27597, 0.19141, -0.69025,
 08:16:58.124,f7:68:33:b1:9e:f1, 2015-01-01 01:02:59.975, 0.67, 0.184, 0.672, -8.484, -16.968, -18.066, 7.745, -45.055, 84.359, -32.773, -47.013, -168.713, 23.75, -0.64084, -0.27597, 0.19141, -0.69025,
 08:16:58.154,f7:68:33:b1:9e:f1, 2015-01-01 01:03:00.485, 0.689, 0.184, 0.672, -8.484, -16.968, -18.066, 7.811, -45.121, 84.221, -32.773, -47.013, -168.713, 23.75, -0.64084, -0.27597, 0.19141, -0.69025,
 08:16:58.154,f7:68:33:b1:9e:f1, 2015-01-01 01:03:00.485, 0.689, 0.201, 0.727, -11.353, -19.897, -13.489, 7.844, -45.203, 84.111, -32.773, -47.013, -168.713, 23.75, -0.64084, -0.27597, 0.19141, -0.69025,
 08:16:58.154,f7:68:33:b1:9e:f1, 2015-01-01 01:03:00.485, 0.689, 0.201, 0.727, -11.353, -19.897, -13.489, 7.877, -45.286, 84.001, -32.773, -47.013, -168.713, 23.75, -0.64084, -0.27597, 0.19141, -0.69025,
 08:16:58.154,f7:68:33:b1:9e:f1, 2015-01-01 01:03:00.485, 0.344, 0.201, 0.727, -11.353, -19.897, -13.489, 7.91, -45.363, 83.892, -32.773, -47.013, -168.713, 23.75, -0.64084, -0.27597, 0.19141, -0.69025,
 08:16:58.154,f7:68:33:b1:9e:f1, 2015-01-01 01:03:00.485, 0.729, 0.101, 0.363, -11.353, -19.897, -13.489, 7.943, -45.445, 83.782, -32.773, -47.013, -168.713, 23.75, -0.64084, -0.27597, 0.19141, -0.69025,
 08:16:58.155,f7:68:33:b1:9e:f1, 2015-01-01 01:03:00.485, 0.729, 0.199, 0.802, -8.301, -31.616, -12.939, 7.998, -45.582, 83.661, -32.773, -47.013, -168.713, 23.75, -0.64084, -0.27597, 0.19141, -0.69025,
 08:16:58.155,f7:68:33:b1:9e:f1, 2015-01-01 01:03:00.485, 0.729, 0.199, 0.802, -8.301, -31.616, -12.939, 8.053, -45.72, 83.54, -32.773, -47.013, -168.713, 23.75, -0.64084, -0.27597, 0.19141, -0.69025,
 08:16:58.155,f7:68:33:b1:9e:f1, 2015-01-01 01:03:00.485, 0.729, 0.199, 0.802, -8.301, -31.616, -12.939, 8.113, -45.857, 83.419, -32.773, -47.013, -168.713, 23.75, -0.64084, -0.27597, 0.19141, -0.69025,
 08:16:58.167,d6:24:01:31:b7:6e, 2015-01-01 00:58:45.100, 0.199, -0.104, 0.908, -37.231, 24.17, 41.87, -8.575, -14.777, 4.4, -28.260, 11.747, -42.800, 24.9, 0.98663, -0.01642, -0.1604, 0.02087,
 08:16:58.183,f7:68:33:b1:9e:f1, 2015-01-01 01:03:00.485, 0.74, 0.199, 0.802, -8.301, -31.616, -12.939, 8.174, -45.994, 83.298, -32.773, -47.013, -168.713, 23.75, -0.64084, -0.27597, 0.19141, -0.69025,
 08:16:58.183,f7:68:33:b1:9e:f1, 2015-01-01 01:03:00.485, 0.74, 0.198, 0.789, -1.221, -36.926, -11.353, 8.262, -46.154, 83.183, -32.773, -47.013, -168.713, 23.75, -0.64084, -0.27597, 0.19141, -0.69025,
 08:16:58.183,f7:68:33:b1:9e:f1, 2015-01-01 01:03:00.485, 0.74, 0.198, 0.789, -1.221, -36.926, -11.353, 8.355, -46.318, 83.062, -32.773, -47.013, -168.713, 23.75, -0.64084, -0.27597, 0.19141, -0.69025,
 08:16:58.183,f7:68:33:b1:9e:f1, 2015-01-01 01:03:00.485, 0.74, 0.198, 0.789, -1.221, -36.926, -11.353, 8.448, -46.478, 82.941, -32.773, -47.013, -168.713, 23.75, -0.64084, -0.27597, 0.19141, -0.69025,
 08:16:58.183,f7:68:33:b1:9e:f1, 2015-01-01 01:03:00.485, 0.728, 0.198, 0.789, -1.221, -36.926, -11.353, 8.542, -46.637, 82.82, -32.773, -47.013, -168.713, 23.75, -0.64084, -0.27597, 0.19141, -0.69025,
 08:16:58.183,f7:68:33:b1:9e:f1, 2015-01-01 01:03:00.485, 0.728, 0.236, 0.802, -11.841, -40.894, -2.93, 8.547, -46.824, 82.755, -32.773, -47.013, -168.713, 23.75, -0.64084, -0.27597, 0.19141, -0.69025,
 08:16:58.183,f7:68:33:b1:9e:f1, 2015-01-01 01:03:00.485, 0.728, 0.236, 0.802, -11.841, -40.894, -2.93, 8.547, -47.01, 82.689, -32.773, -47.013, -168.713, 23.75, -0.64084, -0.27597, 0.19141, -0.69025,
 08:16:58.183,f7:68:33:b1:9e:f1, 2015-01-01 01:03:00.485, 0.728, 0.236, 0.802, -11.841, -40.894, -2.93, 8.553, -47.197, 82.623, -32.773, -47.013, -168.713, 23.75, -0.64084, -0.27597, 0.19141, -0.69025,
 08:16:58.244,f7:68:33:b1:9e:f1, 2015-01-01 01:03:00.485, 0.785, 0.236, 0.802, -11.841, -40.894, -2.93, 8.558, -47.379, 82.557, -32.773, -47.013, -168.713, 23.75, -0.64084, -0.27597, 0.19141, -0.69025,
 08:16:58.244,f7:68:33:b1:9e:f1, 2015-01-01 01:03:00.485, 0.785, 0.261, 0.866, -14.099, -52.246, 7.935, 8.509, -47.631, 82.551, -32.773, -47.013, -168.713, 23.75, -0.64084, -0.27597, 0.19141, -0.69025,
 08:16:58.244,f7:68:33:b1:9e:f1, 2015-01-01 01:03:00.485, 0.785, 0.261, 0.866, -14.099, -52.246, 7.935, 8.454, -47.878, 82.546, -32.773, -47.013, -168.713, 23.75, -0.64084, -0.27597, 0.19141, -0.69025,
 08:16:58.244,f7:68:33:b1:9e:f1, 2015-01-01 01:03:00.485, 0.785, 0.261, 0.866, -14.099, -52.246, 7.935, 8.405, -48.126, 82.546, -32.773, -47.013, -168.713, 23.75, -0.64084, -0.27597, 0.19141, -0.69025,
 08:16:58.244,f7:68:33:b1:9e:f1, 2015-01-01 01:03:00.485, 0.79, 0.261, 0.866, -14.099, -52.246, 7.935, 8.355, -48.367, 82.54, -32.773, -47.013, -168.713, 23.75, -0.64084, -0.27597, 0.19141, -0.69025,
 08:16:58.244,f7:68:33:b1:9e:f1, 2015-01-01 01:03:00.485, 0.79, 0.305, 1.014, -23.499, -67.688, 21.057, 8.201, -48.702, 82.617, -32.773, -47.013, -168.713, 23.75, -0.64084, -0.27597, 0.19141, -0.69025,
 08:16:58.244,f7:68:33:b1:9e:f1, 2015-01-01 01:03:00.485, 0.79, 0.305, 1.014, -23.499, -67.688, 21.057, 8.042, -49.032, 82.689, -32.773, -47.013, -168.713, 23.75, -0.64084, -0.27597, 0.19141, -0.69025,
 08:16:58.244,f7:68:33:b1:9e:f1, 2015-01-01 01:03:00.485, 0.79, 0.305, 1.014, -23.499, -67.688, 21.057, 7.888, -49.356, 82.766, -32.773, -47.013, -168.713, 23.75, -0.64084, -0.27597, 0.19141, -0.69025,
 08:16:58.257,d6:24:01:31:b7:6e, 2015-01-01 00:58:45.100, -0.014, -0.222, 0.984, -98.694, 56.458, 38.147, -15.754, -10.739, 6.696, -13.933, 21.767, -36.907, 24.9, 0.98663, -0.01642, -0.1604, 0.02087,
 08:16:58.274,f7:68:33:b1:9e:f1, 2015-01-01 01:03:00.485, 0.744, 0.305, 1.014, -23.499, -67.688, 21.057, 7.734, -49.68, 82.848, -32.773, -47.013, -168.713, 23.75, -0.64084, -0.27597, 0.19141, -0.69025,
 08:16:58.274,f7:68:33:b1:9e:f1, 2015-01-01 01:03:00.485, 0.744, 0.372, 1.234, -26.123, -88.135, 25.085, 7.559, -50.109, 82.93, -32.773, -47.013, -168.713, 23.75, -0.64084, -0.27597, 0.19141, -0.69025,
 08:16:58.274,f7:68:33:b1:9e:f1, 2015-01-01 01:03:00.485, 0.744, 0.372, 1.234, -26.123, -88.135, 25.085, 7.383, -50.532, 83.018, -32.773, -47.013, -168.713, 23.75, -0.64084, -0.27597, 0.19141, -0.69025,
 08:16:58.274,f7:68:33:b1:9e:f1, 2015-01-01 01:03:00.485, 0.744, 0.372, 1.234, -26.123, -88.135, 25.085, 7.207, -50.949, 83.106, -32.773, -47.013, -168.713, 23.75, -0.64084, -0.27597, 0.19141, -0.69025,
 08:16:58.274,f7:68:33:b1:9e:f1, 2015-01-01 01:03:00.485, 0.893, 0.372, 1.234, -26.123, -88.135, 25.085, 7.026, -51.367, 83.199, -32.773, -47.013, -168.713, 23.75, -0.64084, -0.27597, 0.19141, -0.69025,
 08:16:58.274,f7:68:33:b1:9e:f1, 2015-01-01 01:03:00.485, 0.893, 0.347, 1.351, 6.531, -107.178, 32.654, 6.982, -51.877, 83.331, -32.773, -47.013, -168.713, 23.75, -0.64084, -0.27597, 0.19141, -0.69025,
 08:16:58.275,f7:68:33:b1:9e:f1, 2015-01-01 01:03:00.485, 0.893, 0.347, 1.351, 6.531, -107.178, 32.654, 6.932, -52.388, 83.463, -32.773, -47.013, -168.713, 23.75, -0.64084, -0.27597, 0.19141, -0.69025,
 08:16:58.275,f7:68:33:b1:9e:f1, 2015-01-01 01:03:00.485, 0.893, 0.347, 1.351, 6.531, -107.178, 32.654, 6.883, -52.899, 83.595, -32.773, -47.013, -168.713, 23.75, -0.64084, -0.27597, 0.19141, -0.69025,
 08:16:58.304,f7:68:33:b1:9e:f1, 2015-01-01 01:03:00.485, 0.954, 0.347, 1.351, 6.531, -107.178, 32.654, 6.828, -53.405, 83.732, -32.773, -47.013, -168.713, 23.75, -0.64084, -0.27597, 0.19141, -0.69025,
 08:16:58.304,f7:68:33:b1:9e:f1, 2015-01-01 01:03:00.485, 0.954, 0.281, 1.358, 52.979, -110.474, 46.204, 6.921, -53.932, 83.974, -32.773, -47.013, -168.713, 23.75, -0.64084, -0.27597, 0.19141, -0.69025,
 08:16:58.304,f7:68:33:b1:9e:f1, 2015-01-01 01:03:00.485, 0.954, 0.281, 1.358, 52.979, -110.474, 46.204, 7.004, -54.465, 84.221, -32.773, -47.013, -168.713, 23.75, -0.64084, -0.27597, 0.19141, -0.69025,
 08:16:58.304,f7:68:33:b1:9e:f1, 2015-01-01 01:03:00.485, 0.954, 0.281, 1.358, 52.979, -110.474, 46.204, 7.086, -54.992, 84.468, -32.773, -47.013, -168.713, 23.75, -0.64084, -0.27597, 0.19141, -0.69025,
 08:16:58.304,f7:68:33:b1:9e:f1, 2015-01-01 01:03:00.485, 0.856, 0.281, 1.358, 52.979, -110.474, 46.204, 7.169, -55.514, 84.716, -32.773, -47.013, -168.713, 23.75, -0.64084, -0.27597, 0.19141, -0.69025,
 08:16:58.304,f7:68:33:b1:9e:f1, 2015-01-01 01:03:00.485, 0.856, 0.199, 1.279, 96.802, -94.543, 52.063, 7.405, -55.964, 85.04, -32.773, -47.013, -168.713, 23.75, -0.64084, -0.27597, 0.19141, -0.69025,
 08:16:58.304,f7:68:33:b1:9e:f1, 2015-01-01 01:03:00.485, 0.856, 0.199, 1.279, 96.802, -94.543, 52.063, 7.635, -56.415, 85.358, -32.773, -47.013, -168.713, 23.75, -0.64084, -0.27597, 0.19141, -0.69025,
 08:16:58.305,f7:68:33:b1:9e:f1, 2015-01-01 01:03:00.485, 0.856, 0.199, 1.279, 96.802, -94.543, 52.063, 7.861, -56.86, 85.682, -32.773, -47.013, -168.713, 23.75, -0.64084, -0.27597, 0.19141, -0.69025,
 08:16:58.367,f7:68:33:b1:9e:f1, 2015-01-01 01:03:00.485, 0.725, 0.199, 1.279, 96.802, -94.543, 52.063, 8.086, -57.305, 86.001, -32.773, -47.013, -168.713, 23.75, -0.64084, -0.27597, 0.19141, -0.69025,
 08:16:58.367,f7:68:33:b1:9e:f1, 2015-01-01 01:03:00.485, 0.725, 0.108, 1.149, 141.113, -116.333, 58.655, 8.509, -57.865, 86.347, -32.773, -47.013, -168.713, 23.75, -0.64084, -0.27597, 0.19141, -0.69025,
 08:16:58.367,f7:68:33:b1:9e:f1, 2015-01-01 01:03:00.485, 0.725, 0.108, 1.149, 141.113, -116.333, 58.655, 8.926, -58.42, 86.693, -32.773, -47.013, -168.713, 23.75, -0.64084, -0.27597, 0.19141, -0.69025,
 08:16:58.367,f7:68:33:b1:9e:f1, 2015-01-01 01:03:00.485, 0.725, 0.108, 1.149, 141.113, -116.333, 58.655, 9.349, -58.98, 87.034, -32.773, -47.013, -168.713, 23.75, -0.64084, -0.27597, 0.19141, -0.69025,
 08:16:58.367,f7:68:33:b1:9e:f1, 2015-01-01 01:03:00.485, 0.629, 0.108, 1.149, 141.113, -116.333, 58.655, 9.761, -59.535, 87.369, -32.773, -47.013, -168.713, 23.75, -0.64084, -0.27597, 0.19141, -0.69025,
 08:16:58.367,f7:68:33:b1:9e:f1, 2015-01-01 01:03:00.485, 0.629, -0.024, 1.02, 172.485, -146.667, 53.772, 10.432, -60.233, 87.589, -32.773, -47.013, -168.713, 23.75, -0.64084, -0.27597, 0.19141, -0.69025,
 08:16:58.368,f7:68:33:b1:9e:f1, 2015-01-01 01:03:00.485, 0.629, -0.024, 1.02, 172.485, -146.667, 53.772, 11.102, -60.93, 87.803, -32.773, -47.013, -168.713, 23.75, -0.64084, -0.27597, 0.19141, -0.69025,
 08:16:58.368,f7:68:33:b1:9e:f1, 2015-01-01 01:03:00.485, 0.629, -0.024, 1.02, 172.485, -146.667, 53.772, 11.777, -61.628, 88, -32.773, -47.013, -168.713, 23.75, -0.64084, -0.27597, 0.19141, -0.69025,
 08:16:58.377,d6:24:01:31:b7:6e, 2015-01-01 00:58:45.460, 0.068, -0.267, 0.901, -150.269, -29.785, -41.87, -25.005, -10.552, 5.938, -13.933, 21.767, -36.907, 24.9, 0.97183, -0.21063, -0.1008, 0.03049,
 08:16:58.394,f7:68:33:b1:9e:f1, 2015-01-01 01:03:00.485, 0.59, -0.024, 1.02, 172.485, -146.667, 53.772, 12.464, -62.32, 88.182, -49.613, -46.773, -157.573, 23.75, -0.64084, -0.27597, 0.19141, -0.69025,
 08:16:58.394,f7:68:33:b1:9e:f1, 2015-01-01 01:03:00.485, 0.59, -0.132, 0.915, 197.449, -160.583, 60.181, 13.255, -63.089, 88.385, -49.613, -46.773, -157.573, 23.75, -0.64084, -0.27597, 0.19141, -0.69025,
 08:16:58.394,f7:68:33:b1:9e:f1, 2015-01-01 01:03:00.485, 0.59, -0.132, 0.915, 197.449, -160.583, 60.181, 14.057, -63.858, 88.566, -49.613, -46.773, -157.573, 23.75, -0.64084, -0.27597, 0.19141, -0.69025,
 08:16:58.394,f7:68:33:b1:9e:f1, 2015-01-01 01:03:00.485, 0.624, -0.132, 0.915, 197.449, -160.583, 60.181, 14.87, -64.622, 88.726, -49.613, -46.773, -157.573, 23.75, -0.64084, -0.27597, 0.19141, -0.69025,
 08:16:58.394,f7:68:33:b1:9e:f1, 2015-01-01 01:03:00.485, 0.624, -0.321, 0.598, 221.68, -138.245, 55.603, 15.798, -65.275, 88.89, -49.613, -46.773, -157.573, 23.75, -0.64084, -0.27597, 0.19141, -0.69025,
 08:16:58.394,f7:68:33:b1:9e:f1, 2015-01-01 01:03:00.485, 0.624, -0.321, 0.598, 221.68, -138.245, 55.603, 16.732, -65.929, 89.039, -49.613, -46.773, -157.573, 23.75, -0.64084, -0.27597, 0.19141, -0.69025,
 08:16:58.394,f7:68:33:b1:9e:f1, 2015-01-01 01:03:00.485, 0.624, -0.321, 0.598, 221.68, -138.245, 55.603, 17.688, -66.588, 89.16, -49.613, -46.773, -157.573, 23.75, -0.64084, -0.27597, 0.19141, -0.69025,
 08:16:58.394,f7:68:33:b1:9e:f1, 2015-01-01 01:03:00.485, 0.658, -0.321, 0.598, 221.68, -138.245, 55.603, 18.655, -67.242, 89.258, -49.613, -46.773, -157.573, 23.75, -0.64084, -0.27597, 0.19141, -0.69025,
 08:16:58.425,f7:68:33:b1:9e:f1, 2015-01-01 01:03:00.485, 0.658, -0.467, 0.248, 190.491, -91.858, 38.513, 19.473, -67.648, 89.346, -49.613, -46.773, -157.573, 23.75, -0.64084, -0.27597, 0.19141, -0.69025,
 08:16:58.425,f7:68:33:b1:9e:f1, 2015-01-01 01:03:00.485, 0.658, -0.467, 0.248, 190.491, -91.858, 38.513, 20.297, -68.06, 89.418, -49.613, -46.773, -157.573, 23.75, -0.64084, -0.27597, 0.19141, -0.69025,
 08:16:58.425,f7:68:33:b1:9e:f1, 2015-01-01 01:03:00.485, 0.658, -0.467, 0.248, 190.491, -91.858, 38.513, 21.127, -68.472, 89.473, -49.613, -46.773, -157.573, 23.75, -0.64084, -0.27597, 0.19141, -0.69025,
 08:16:58.425,f7:68:33:b1:9e:f1, 2015-01-01 01:03:00.485, 0.545, -0.467, 0.248, 190.491, -91.858, 38.513, 21.962, -68.89, 89.522, -49.613, -46.773, -157.573, 23.75, -0.64084, -0.27597, 0.19141, -0.69025,
 08:16:58.425,f7:68:33:b1:9e:f1, 2015-01-01 01:03:00.485, 0.545, -0.529, 0.191, 139.526, -51.697, 31.006, 22.423, -69.109, 89.687, -49.613, -46.773, -157.573, 23.75, -0.64084, -0.27597, 0.19141, -0.69025,
 08:16:58.425,f7:68:33:b1:9e:f1, 2015-01-01 01:03:00.485, 0.545, -0.529, 0.191, 139.526, -51.697, 31.006, 22.879, -69.329, 89.852, -49.613, -46.773, -157.573, 23.75, -0.64084, -0.27597, 0.19141, -0.69025,
 08:16:58.425,f7:68:33:b1:9e:f1, 2015-01-01 01:03:00.485, 0.545, -0.529, 0.191, 139.526, -51.697, 31.006, 23.329, -69.549, 90.011, -49.613, -46.773, -157.573, 23.75, -0.64084, -0.27597, 0.19141, -0.69025,
 08:16:58.426,f7:68:33:b1:9e:f1, 2015-01-01 01:03:00.485, 0.69, -0.529, 0.191, 139.526, -51.697, 31.006, 23.774, -69.774, 90.176, -49.613, -46.773, -157.573, 23.75, -0.64084, -0.27597, 0.19141, -0.69025,
 08:16:58.466,d6:24:01:31:b7:6e, 2015-01-01 00:58:45.460, 0.865, -0.271, 0.649, 7.568, 29.297, -75.684, -25.983, -13.041, 0.549, -13.933, 21.767, -36.907, 24.9, 0.97183, -0.21063, -0.1008, 0.03049,
 08:16:58.483,f7:68:33:b1:9e:f1, 2015-01-01 01:03:00.485, 0.69, -0.438, 0.077, 138.184, -72.754, 46.021, 24.153, -70.131, 90.396, -49.613, -46.773, -157.573, 23.75, -0.49161, -0.50967, 0.27237, -0.65134,
 08:16:58.483,f7:68:33:b1:9e:f1, 2015-01-01 01:03:00.485, 0.69, -0.438, 0.077, 138.184, -72.754, 46.021, 24.521, -70.488, 90.621, -49.613, -46.773, -157.573, 23.75, -0.49161, -0.50967, 0.27237, -0.65134,
 08:16:58.483,f7:68:33:b1:9e:f1, 2015-01-01 01:03:00.485, 0.69, -0.438, 0.077, 138.184, -72.754, 46.021, 24.89, -70.851, 90.84, -49.613, -46.773, -157.573, 23.75, -0.49161, -0.50967, 0.27237, -0.65134,
 08:16:58.483,f7:68:33:b1:9e:f1, 2015-01-01 01:03:00.485, 0.925, -0.438, 0.077, 138.184, -72.754, 46.021, 25.252, -71.213, 91.055, -49.613, -46.773, -157.573, 23.75, -0.49161, -0.50967, 0.27237, -0.65134,
 08:16:58.483,f7:68:33:b1:9e:f1, 2015-01-01 01:03:00.485, 0.925, -0.472, -0.304, 144.714, -67.139, 45.776, 25.609, -71.559, 91.302, -49.613, -46.773, -157.573, 23.75, -0.49161, -0.50967, 0.27237, -0.65134,
 08:16:58.483,f7:68:33:b1:9e:f1, 2015-01-01 01:03:00.485, 0.925, -0.472, -0.304, 144.714, -67.139, 45.776, 25.966, -71.911, 91.549, -49.613, -46.773, -157.573, 23.75, -0.49161, -0.50967, 0.27237, -0.65134,
 08:16:58.483,f7:68:33:b1:9e:f1, 2015-01-01 01:03:00.485, 0.925, -0.472, -0.304, 144.714, -67.139, 45.776, 26.318, -72.268, 91.785, -49.613, -46.773, -157.573, 23.75, -0.49161, -0.50967, 0.27237, -0.65134,
 08:16:58.483,f7:68:33:b1:9e:f1, 2015-01-01 01:03:00.485, 0.876, -0.472, -0.304, 144.714, -67.139, 45.776, 26.664, -72.631, 92.016, -49.613, -46.773, -157.573, 23.75, -0.49161, -0.50967, 0.27237, -0.65134,
 08:16:58.513,f7:68:33:b1:9e:f1, 2015-01-01 01:03:00.840, 0.876, -0.411, -0.352, 91.614, -102.905, 24.78, 27.312, -73.103, 91.642, -49.613, -46.773, -157.573, 23.75, -0.49161, -0.50967, 0.27237, -0.65134,
 08:16:58.513,f7:68:33:b1:9e:f1, 2015-01-01 01:03:00.840, 0.876, -0.411, -0.352, 91.614, -102.905, 24.78, 27.988, -73.581, 91.241, -49.613, -46.773, -157.573, 23.75, -0.49161, -0.50967, 0.27237, -0.65134,
 08:16:58.513,f7:68:33:b1:9e:f1, 2015-01-01 01:03:00.840, 0.876, -0.411, -0.352, 91.614, -102.905, 24.78, 28.68, -74.059, 90.807, -49.613, -46.773, -157.573, 23.75, -0.49161, -0.50967, 0.27237, -0.65134,
 08:16:58.513,f7:68:33:b1:9e:f1, 2015-01-01 01:03:00.840, 0.816, -0.411, -0.352, 91.614, -102.905, 24.78, 29.405, -74.542, 90.335, -49.613, -46.773, -157.573, 23.75, -0.49161, -0.50967, 0.27237, -0.65134,
 08:16:58.513,f7:68:33:b1:9e:f1, 2015-01-01 01:03:00.840, 0.816, -0.218, -0.31, 39.307, -61.523, 29.541, 29.427, -74.861, 90.319, -49.613, -46.773, -157.573, 23.75, -0.49161, -0.50967, 0.27237, -0.65134,
 08:16:58.514,f7:68:33:b1:9e:f1, 2015-01-01 01:03:00.840, 0.816, -0.218, -0.31, 39.307, -61.523, 29.541, 29.443, -75.185, 90.291, -49.613, -46.773, -157.573, 23.75, -0.49161, -0.50967, 0.27237, -0.65134,
 08:16:58.514,f7:68:33:b1:9e:f1, 2015-01-01 01:03:00.840, 0.816, -0.218, -0.31, 39.307, -61.523, 29.541, 29.465, -75.515, 90.264, -49.613, -46.773, -157.573, 23.75, -0.49161, -0.50967, 0.27237, -0.65134,
 08:16:58.514,f7:68:33:b1:9e:f1, 2015-01-01 01:03:00.840, 0.756, -0.218, -0.31, 39.307, -61.523, 29.541, 29.482, -75.844, 90.225, -49.613, -46.773, -157.573, 23.75, -0.49161, -0.50967, 0.27237, -0.65134,
 08:16:58.542,f7:68:33:b1:9e:f1, 2015-01-01 01:03:00.840, 0.756, 0.103, -0.629, -88.379, 57.434, 67.627, 27.043, -75.756, 92.065, -49.613, -46.773, -157.573, 23.75, -0.49161, -0.50967, 0.27237, -0.65134,
 08:16:58.542,f7:68:33:b1:9e:f1, 2015-01-01 01:03:00.840, 0.756, 0.103, -0.629, -88.379, 57.434, 67.627, 24.637, -75.663, 93.851, -49.613, -46.773, -157.573, 23.75, -0.49161, -0.50967, 0.27237, -0.65134,
 08:16:58.542,f7:68:33:b1:9e:f1, 2015-01-01 01:03:00.840, 0.756, 0.103, -0.629, -88.379, 57.434, 67.627, 22.275, -75.547, 95.576, -49.613, -46.773, -157.573, 23.75, -0.49161, -0.50967, 0.27237, -0.65134,
 08:16:58.542,f7:68:33:b1:9e:f1, 2015-01-01 01:03:00.840, 0.939, 0.103, -0.629, -88.379, 57.434, 67.627, 19.946, -75.416, 97.251, -49.613, -46.773, -157.573, 23.75, -0.49161, -0.50967, 0.27237, -0.65134,
 08:16:58.542,f7:68:33:b1:9e:f1, 2015-01-01 01:03:00.840, 0.939, 0.072, -0.828, -122.253, 43.518, 65.613, 17.606, -75.333, 98.745, -49.613, -46.773, -157.573, 23.75, -0.49161, -0.50967, 0.27237, -0.65134,
 08:16:58.542,f7:68:33:b1:9e:f1, 2015-01-01 01:03:00.840, 0.939, 0.072, -0.828, -122.253, 43.518, 65.613, 15.276, -75.229, 100.201, -49.613, -46.773, -157.573, 23.75, -0.49161, -0.50967, 0.27237, -0.65134,
 08:16:58.543,f7:68:33:b1:9e:f1, 2015-01-01 01:03:00.840, 0.939, 0.072, -0.828, -122.253, 43.518, 65.613, 12.964, -75.108, 101.624, -49.613, -46.773, -157.573, 23.75, -0.49161, -0.50967, 0.27237, -0.65134,
 08:16:58.543,f7:68:33:b1:9e:f1, 2015-01-01 01:03:00.840, 0.915, 0.072, -0.828, -122.253, 43.518, 65.613, 10.668, -74.971, 103.024, -49.613, -46.773, -157.573, 23.75, -0.49161, -0.50967, 0.27237, -0.65134,
 08:16:58.588,d6:24:01:31:b7:6e, 2015-01-01 00:58:45.460, 1.575, 0.035, 1.232, 143.677, -276.062, -273.376, -13.645, -42.808, -11.162, -51.307, 16.533, -30.327, 24.9, 0.97183, -0.21063, -0.1008, 0.03049,
 08:16:58.603,f7:68:33:b1:9e:f1, 2015-01-01 01:03:00.840, 0.915, 0.147, -0.701, -85.449, -6.104, 46.021, 9.102, -75.042, 103.848, -49.613, -46.773, -157.573, 23.75, -0.49161, -0.50967, 0.27237, -0.65134,
 08:16:58.603,f7:68:33:b1:9e:f1, 2015-01-01 01:03:00.840, 0.915, 0.147, -0.701, -85.449, -6.104, 46.021, 7.52, -75.103, 104.694, -49.613, -46.773, -157.573, 23.75, -0.49161, -0.50967, 0.27237, -0.65134,
 08:16:58.603,f7:68:33:b1:9e:f1, 2015-01-01 01:03:00.840, 0.915, 0.147, -0.701, -85.449, -6.104, 46.021, 5.911, -75.157, 105.557, -49.613, -46.773, -157.573, 23.75, -0.49161, -0.50967, 0.27237, -0.65134,
 08:16:58.603,f7:68:33:b1:9e:f1, 2015-01-01 01:03:00.840, 0.884, 0.147, -0.701, -85.449, -6.104, 46.021, 4.279, -75.207, 106.447, -49.613, -46.773, -157.573, 23.75, -0.49161, -0.50967, 0.27237, -0.65134,
 08:16:58.603,f7:68:33:b1:9e:f1, 2015-01-01 01:03:00.840, 0.884, 0.096, -0.478, -82.764, -26.855, 36.133, 3.609, -75.372, 107.073, -49.613, -46.773, -157.573, 23.75, -0.49161, -0.50967, 0.27237, -0.65134,
 08:16:58.603,f7:68:33:b1:9e:f1, 2015-01-01 01:03:00.840, 0.884, 0.096, -0.478, -82.764, -26.855, 36.133, 2.933, -75.536, 107.699, -49.613, -46.773, -157.573, 23.75, -0.49161, -0.50967, 0.27237, -0.65134,
 08:16:58.603,f7:68:33:b1:9e:f1, 2015-01-01 01:03:00.840, 0.884, 0.096, -0.478, -82.764, -26.855, 36.133, 2.247, -75.696, 108.331, -49.613, -46.773, -157.573, 23.75, -0.49161, -0.50967, 0.27237, -0.65134,
 08:16:58.603,f7:68:33:b1:9e:f1, 2015-01-01 01:03:00.840, 0.977, 0.096, -0.478, -82.764, -26.855, 36.133, 1.555, -75.861, 108.968, -49.613, -46.773, -157.573, 23.75, -0.49161, -0.50967, 0.27237, -0.65134,
 08:16:58.634,f7:68:33:b1:9e:f1, 2015-01-01 01:03:00.840, 0.977, 0.097, -0.321, -37.354, -22.766, 10.986, 1.577, -75.992, 109.111, -49.613, -46.773, -157.573, 23.75, -0.49161, -0.50967, 0.27237, -0.65134,
 08:16:58.634,f7:68:33:b1:9e:f1, 2015-01-01 01:03:00.840, 0.977, 0.097, -0.321, -37.354, -22.766, 10.986, 1.593, -76.13, 109.254, -49.613, -46.773, -157.573, 23.75, -0.49161, -0.50967, 0.27237, -0.65134,
 08:16:58.634,f7:68:33:b1:9e:f1, 2015-01-01 01:03:00.840, 0.977, 0.097, -0.321, -37.354, -22.766, 10.986, 1.604, -76.262, 109.396, -49.613, -46.773, -157.573, 23.75, -0.49161, -0.50967, 0.27237, -0.65134,
 08:16:58.634,f7:68:33:b1:9e:f1, 2015-01-01 01:03:00.840, 0.867, 0.097, -0.321, -37.354, -22.766, 10.986, 1.62, -76.393, 109.539, -49.613, -46.773, -157.573, 23.75, -0.49161, -0.50967, 0.27237, -0.65134,
 08:16:58.634,f7:68:33:b1:9e:f1, 2015-01-01 01:03:00.840, 0.867, 0.122, -0.315, -43.884, 4.028, 1.709, 1.763, -76.393, 109.523, -49.613, -46.773, -157.573, 23.75, -0.49161, -0.50967, 0.27237, -0.65134,
 08:16:58.634,f7:68:33:b1:9e:f1, 2015-01-01 01:03:00.840, 0.867, 0.122, -0.315, -43.884, 4.028, 1.709, 1.901, -76.388, 109.501, -49.613, -46.773, -157.573, 23.75, -0.49161, -0.50967, 0.27237, -0.65134,
 08:16:58.634,f7:68:33:b1:9e:f1, 2015-01-01 01:03:00.840, 0.867, 0.122, -0.315, -43.884, 4.028, 1.709, 2.043, -76.388, 109.473, -49.613, -46.773, -157.573, 23.75, -0.49161, -0.50967, 0.27237, -0.65134,
 08:16:58.634,f7:68:33:b1:9e:f1, 2015-01-01 01:03:00.840, 0.805, 0.122, -0.315, -43.884, 4.028, 1.709, 2.186, -76.382, 109.451, -49.613, -46.773, -157.573, 23.75, -0.49161, -0.50967, 0.27237, -0.65134,
 08:16:58.647,d6:24:01:31:b7:6e, 2015-01-01 00:58:45.460, 1.411, -0.37, 0.986, 98.633, 169.556, 17.883, 6.548, -46.187, -24.296, -51.307, 16.533, -30.327, 24.9, 0.91309, -0.01688, -0.37109, -0.16791,
 08:16:58.663,f7:68:33:b1:9e:f1, 2015-01-01 01:03:00.840, 0.805, 0.158, -0.317, -43.396, 21.545, 4.7, 2.247, -76.295, 109.512, -49.613, -46.773, -157.573, 23.75, -0.49161, -0.50967, 0.27237, -0.65134,
 08:16:58.663,f7:68:33:b1:9e:f1, 2015-01-01 01:03:00.840, 0.805, 0.158, -0.317, -43.396, 21.545, 4.7, 2.302, -76.207, 109.572, -49.613, -46.773, -157.573, 23.75, -0.49161, -0.50967, 0.27237, -0.65134,
 08:16:58.663,f7:68:33:b1:9e:f1, 2015-01-01 01:03:00.840, 0.805, 0.158, -0.317, -43.396, 21.545, 4.7, 2.362, -76.113, 109.633, -49.613, -46.773, -157.573, 23.75, -0.49161, -0.50967, 0.27237, -0.65134,
 08:16:58.663,f7:68:33:b1:9e:f1, 2015-01-01 01:03:00.840, 0.809, 0.158, -0.317, -43.396, 21.545, 4.7, 2.422, -76.025, 109.688, -49.613, -46.773, -157.573, 23.75, -0.49161, -0.50967, 0.27237, -0.65134,
 08:16:58.663,f7:68:33:b1:9e:f1, 2015-01-01 01:03:00.840, 0.809, 0.083, -0.276, -49.133, 34.302, 1.404, 2.499, -75.872, 109.698, -49.613, -46.773, -157.573, 23.75, -0.49161, -0.50967, 0.27237, -0.65134,
 08:16:58.663,f7:68:33:b1:9e:f1, 2015-01-01 01:03:00.840, 0.809, 0.083, -0.276, -49.133, 34.302, 1.404, 2.576, -75.718, 109.709, -49.613, -46.773, -157.573, 23.75, -0.49161, -0.50967, 0.27237, -0.65134,
 08:16:58.663,f7:68:33:b1:9e:f1, 2015-01-01 01:03:00.840, 0.809, 0.083, -0.276, -49.133, 34.302, 1.404, 2.648, -75.564, 109.726, -49.613, -46.773, -157.573, 23.75, -0.49161, -0.50967, 0.27237, -0.65134,
 08:16:58.664,f7:68:33:b1:9e:f1, 2015-01-01 01:03:00.840, 0.932, 0.083, -0.276, -49.133, 34.302, 1.404, 2.714, -75.41, 109.742, -49.613, -46.773, -157.573, 23.75, -0.49161, -0.50967, 0.27237, -0.65134,
 08:16:58.724,f7:68:33:b1:9e:f1, 2015-01-01 01:03:00.840, 0.932, 0.013, -0.36, -77.637, 71.96, -4.028, 2.686, -75.064, 109.715, -49.613, -46.773, -157.573, 23.75, -0.49161, -0.50967, 0.27237, -0.65134,
 08:16:58.724,f7:68:33:b1:9e:f1, 2015-01-01 01:03:00.840, 0.932, 0.013, -0.36, -77.637, 71.96, -4.028, 2.653, -74.724, 109.688, -49.613, -46.773, -157.573, 23.75, -0.49161, -0.50967, 0.27237, -0.65134,
 08:16:58.724,f7:68:33:b1:9e:f1, 2015-01-01 01:03:00.840, 0.932, 0.013, -0.36, -77.637, 71.96, -4.028, 2.62, -74.377, 109.666, -49.613, -46.773, -157.573, 23.75, -0.49161, -0.50967, 0.27237, -0.65134,
 08:16:58.724,f7:68:33:b1:9e:f1, 2015-01-01 01:03:00.840, 0.945, 0.013, -0.36, -77.637, 71.96, -4.028, 2.587, -74.031, 109.644, -49.613, -46.773, -157.573, 23.75, -0.49161, -0.50967, 0.27237, -0.65134,
 08:16:58.724,f7:68:33:b1:9e:f1, 2015-01-01 01:03:00.840, 0.945, -0.01, -0.523, -100.098, 121.277, -3.54, 2.373, -73.444, 109.693, -49.613, -46.773, -157.573, 23.75, -0.49161, -0.50967, 0.27237, -0.65134,
 08:16:58.724,f7:68:33:b1:9e:f1, 2015-01-01 01:03:00.840, 0.945, -0.01, -0.523, -100.098, 121.277, -3.54, 2.164, -72.856, 109.737, -49.613, -46.773, -157.573, 23.75, -0.49161, -0.50967, 0.27237, -0.65134,
 08:16:58.724,f7:68:33:b1:9e:f1, 2015-01-01 01:03:00.840, 0.945, -0.01, -0.523, -100.098, 121.277, -3.54, 1.967, -72.268, 109.77, -49.613, -46.773, -157.573, 23.75, -0.49161, -0.50967, 0.27237, -0.65134,
 08:16:58.724,f7:68:33:b1:9e:f1, 2015-01-01 01:03:00.840, 0.891, -0.01, -0.523, -100.098, 121.277, -3.54, 1.774, -71.68, 109.797, -49.613, -46.773, -157.573, 23.75, -0.49161, -0.50967, 0.27237, -0.65134,
 08:16:58.755,f7:68:33:b1:9e:f1, 2015-01-01 01:03:00.840, 0.891, -0.107, -0.25, -84.9, 106.201, -20.813, 1.923, -71.164, 109.55, -62.520, -49.127, -143.167, 23.75, -0.49161, -0.50967, 0.27237, -0.65134,
 08:16:58.755,f7:68:33:b1:9e:f1, 2015-01-01 01:03:00.840, 0.891, -0.107, -0.25, -84.9, 106.201, -20.813, 2.049, -70.642, 109.325, -62.520, -49.127, -143.167, 23.75, -0.49161, -0.50967, 0.27237, -0.65134,
 08:16:58.755,f7:68:33:b1:9e:f1, 2015-01-01 01:03:00.840, 0.891, -0.107, -0.25, -84.9, 106.201, -20.813, 2.164, -70.126, 109.111, -62.520, -49.127, -143.167, 23.75, -0.49161, -0.50967, 0.27237, -0.65134,
 08:16:58.755,f7:68:33:b1:9e:f1, 2015-01-01 01:03:00.840, 1.094, -0.107, -0.25, -84.9, 106.201, -20.813, 2.263, -69.604, 108.913, -62.520, -49.127, -143.167, 23.75, -0.49161, -0.50967, 0.27237, -0.65134,
 08:16:58.755,f7:68:33:b1:9e:f1, 2015-01-01 01:03:00.840, 1.094, -0.155, -0.149, -62.439, 139.526, -36.316, 2.626, -68.912, 108.556, -62.520, -49.127, -143.167, 23.75, -0.49161, -0.50967, 0.27237, -0.65134,
 08:16:58.755,f7:68:33:b1:9e:f1, 2015-01-01 01:03:00.840, 1.094, -0.155, -0.149, -62.439, 139.526, -36.316, 2.955, -68.22, 108.232, -62.520, -49.127, -143.167, 23.75, -0.49161, -0.50967, 0.27237, -0.65134,
 08:16:58.755,f7:68:33:b1:9e:f1, 2015-01-01 01:03:00.840, 1.094, -0.155, -0.149, -62.439, 139.526, -36.316, 3.252, -67.527, 107.941, -62.520, -49.127, -143.167, 23.75, -0.49161, -0.50967, 0.27237, -0.65134,
 08:16:58.756,f7:68:33:b1:9e:f1, 2015-01-01 01:03:00.840, 1.142, -0.155, -0.149, -62.439, 139.526, -36.316, 3.527, -66.83, 107.677, -62.520, -49.127, -143.167, 23.75, -0.49161, -0.50967, 0.27237, -0.65134,
 08:16:58.771,d6:24:01:31:b7:6e, 2015-01-01 00:58:45.785, 0.782, -0.065, 0.796, 86.853, -15.137, -4.883, 10.959, -41.193, -27.339, -51.307, 16.533, -30.327, 24.9, 0.91309, -0.01688, -0.37109, -0.16791,
 08:16:58.783,f7:68:33:b1:9e:f1, 2015-01-01 01:03:00.840, 1.142, -0.14, -0.123, -36.499, 181.458, -50.598, 4.016, -65.912, 107.32, -62.520, -49.127, -143.167, 23.75, -0.49161, -0.50967, 0.27237, -0.65134,
 08:16:58.783,f7:68:33:b1:9e:f1, 2015-01-01 01:03:00.840, 1.142, -0.14, -0.123, -36.499, 181.458, -50.598, 4.466, -65.001, 107.001, -62.520, -49.127, -143.167, 23.75, -0.49161, -0.50967, 0.27237, -0.65134,
 08:16:58.783,f7:68:33:b1:9e:f1, 2015-01-01 01:03:00.840, 1.142, -0.14, -0.123, -36.499, 181.458, -50.598, 4.878, -64.078, 106.721, -62.520, -49.127, -143.167, 23.75, -0.49161, -0.50967, 0.27237, -0.65134,
 08:16:58.783,f7:68:33:b1:9e:f1, 2015-01-01 01:03:00.840, 1.072, -0.14, -0.123, -36.499, 181.458, -50.598, 5.257, -63.16, 106.474, -62.520, -49.127, -143.167, 23.75, -0.49161, -0.50967, 0.27237, -0.65134,
 08:16:58.783,f7:68:33:b1:9e:f1, 2015-01-01 01:03:00.840, 1.072, -0.103, -0.129, -14.587, 218.262, -68.42, 5.839, -62.045, 106.117, -62.520, -49.127, -143.167, 23.75, -0.49161, -0.50967, 0.27237, -0.65134,
 08:16:58.783,f7:68:33:b1:9e:f1, 2015-01-01 01:03:00.840, 1.072, -0.103, -0.129, -14.587, 218.262, -68.42, 6.383, -60.925, 105.809, -62.520, -49.127, -143.167, 23.75, -0.49161, -0.50967, 0.27237, -0.65134,
 08:16:58.783,f7:68:33:b1:9e:f1, 2015-01-01 01:03:00.840, 1.072, -0.103, -0.129, -14.587, 218.262, -68.42, 6.883, -59.804, 105.546, -62.520, -49.127, -143.167, 23.75, -0.49161, -0.50967, 0.27237, -0.65134,
 08:16:58.783,f7:68:33:b1:9e:f1, 2015-01-01 01:03:00.840, 0.951, -0.103, -0.129, -14.587, 218.262, -68.42, 7.35, -58.678, 105.309, -62.520, -49.127, -143.167, 23.75, -0.49161, -0.50967, 0.27237, -0.65134,
 08:16:58.845,f7:68:33:b1:9e:f1, 2015-01-01 01:03:00.840, 0.951, -0.054, -0.071, -15.991, 261.414, -84.595, 7.85, -57.327, 105.029, -62.520, -49.127, -143.167, 23.75, -0.48343, -0.44928, 0.26987, -0.70105,
 08:16:58.845,f7:68:33:b1:9e:f1, 2015-01-01 01:03:00.840, 0.951, -0.054, -0.071, -15.991, 261.414, -84.595, 8.306, -55.975, 104.788, -62.520, -49.127, -143.167, 23.75, -0.48343, -0.44928, 0.26987, -0.70105,
 08:16:58.845,f7:68:33:b1:9e:f1, 2015-01-01 01:03:00.840, 0.951, -0.054, -0.071, -15.991, 261.414, -84.595, 8.734, -54.619, 104.584, -62.520, -49.127, -143.167, 23.75, -0.48343, -0.44928, 0.26987, -0.70105,
 08:16:58.845,f7:68:33:b1:9e:f1, 2015-01-01 01:03:00.840, 0.758, -0.054, -0.071, -15.991, 261.414, -84.595, 9.135, -53.262, 104.414, -62.520, -49.127, -143.167, 23.75, -0.48343, -0.44928, 0.26987, -0.70105,
 08:16:58.845,f7:68:33:b1:9e:f1, 2015-01-01 01:03:00.840, 0.758, -0.045, 0.06, -80.505, 233.521, -106.995, 8.888, -52.009, 103.788, -62.520, -49.127, -143.167, 23.75, -0.48343, -0.44928, 0.26987, -0.70105,
 08:16:58.845,f7:68:33:b1:9e:f1, 2015-01-01 01:03:00.840, 0.758, -0.045, 0.06, -80.505, 233.521, -106.995, 8.641, -50.762, 103.162, -62.520, -49.127, -143.167, 23.75, -0.48343, -0.44928, 0.26987, -0.70105,
 08:16:58.845,f7:68:33:b1:9e:f1, 2015-01-01 01:03:00.840, 0.758, -0.045, 0.06, -80.505, 233.521, -106.995, 8.383, -49.521, 102.535, -62.520, -49.127, -143.167, 23.75, -0.48343, -0.44928, 0.26987, -0.70105,
 08:16:58.845,f7:68:33:b1:9e:f1, 2015-01-01 01:03:00.840, 0.751, -0.045, 0.06, -80.505, 233.521, -106.995, 8.119, -48.285, 101.909, -62.520, -49.127, -143.167, 23.75, -0.48343, -0.44928, 0.26987, -0.70105,
 08:16:58.857,d6:24:01:31:b7:6e, 2015-01-01 00:58:45.785, 0.221, 0.239, 1.263, 153.442, 42.908, 123.413, 15.903, -43.967, -21.242, -51.307, 16.533, -30.327, 24.9, 0.91309, -0.01688, -0.37109, -0.16791,
 08:16:58.874,f7:68:33:b1:9e:f1, 2015-01-01 01:03:01.200, 0.751, -0.043, 0.304, -105.713, 190.43, -102.722, 7.745, -47.274, 101.255, -62.520, -49.127, -143.167, 23.75, -0.48343, -0.44928, 0.26987, -0.70105,
 08:16:58.874,f7:68:33:b1:9e:f1, 2015-01-01 01:03:01.200, 0.751, -0.043, 0.304, -105.713, 190.43, -102.722, 7.372, -46.269, 100.596, -62.520, -49.127, -143.167, 23.75, -0.48343, -0.44928, 0.26987, -0.70105,
 08:16:58.874,f7:68:33:b1:9e:f1, 2015-01-01 01:03:01.200, 0.751, -0.043, 0.304, -105.713, 190.43, -102.722, 6.998, -45.269, 99.926, -62.520, -49.127, -143.167, 23.75, -0.48343, -0.44928, 0.26987, -0.70105,
 08:16:58.874,f7:68:33:b1:9e:f1, 2015-01-01 01:03:01.200, 0.551, -0.043, 0.304, -105.713, 190.43, -102.722, 6.625, -44.28, 99.261, -62.520, -49.127, -143.167, 23.75, -0.48343, -0.44928, 0.26987, -0.70105,
 08:16:58.874,f7:68:33:b1:9e:f1, 2015-01-01 01:03:01.200, 0.551, -0.046, 0.413, -159.607, 97.839, -71.838, 5.911, -43.792, 98.707, -62.520, -49.127, -143.167, 23.75, -0.48343, -0.44928, 0.26987, -0.70105,
 08:16:58.874,f7:68:33:b1:9e:f1, 2015-01-01 01:03:01.200, 0.551, -0.046, 0.413, -159.607, 97.839, -71.838, 5.208, -43.314, 98.146, -62.520, -49.127, -143.167, 23.75, -0.48343, -0.44928, 0.26987, -0.70105,
 08:16:58.874,f7:68:33:b1:9e:f1, 2015-01-01 01:03:01.200, 0.322, -0.046, 0.413, -159.607, 97.839, -71.838, 4.526, -42.858, 97.597, -62.520, -49.127, -143.167, 23.75, -0.48343, -0.44928, 0.26987, -0.70105,
 08:16:58.874,f7:68:33:b1:9e:f1, 2015-01-01 01:03:01.200, 0.322, -0.093, 0.47, -104.37, -74.219, -47.791, 4.131, -43.297, 97.103, -62.520, -49.127, -143.167, 23.75, -0.48343, -0.44928, 0.26987, -0.70105,
 08:16:58.933,f7:68:33:b1:9e:f1, 2015-01-01 01:03:01.200, 0.322, -0.093, 0.47, -104.37, -74.219, -47.791, 3.763, -43.748, 96.636, -62.520, -49.127, -143.167, 23.75, -0.48343, -0.44928, 0.26987, -0.70105,
 08:16:58.933,f7:68:33:b1:9e:f1, 2015-01-01 01:03:01.200, 0.322, -0.093, 0.47, -104.37, -74.219, -47.791, 3.417, -44.198, 96.191, -62.520, -49.127, -143.167, 23.75, -0.48343, -0.44928, 0.26987, -0.70105,
 08:16:58.933,f7:68:33:b1:9e:f1, 2015-01-01 01:03:01.200, 0.118, -0.093, 0.47, -104.37, -74.219, -47.791, 3.082, -44.648, 95.757, -62.520, -49.127, -143.167, 23.75, -0.48343, -0.44928, 0.26987, -0.70105,
 08:16:58.933,f7:68:33:b1:9e:f1, 2015-01-01 01:03:01.200, 0.118, 0.004, 0.885, -17.212, -237.244, -50.964, 3.296, -45.906, 95.213, -62.520, -49.127, -143.167, 23.75, -0.48343, -0.44928, 0.26987, -0.70105,
 08:16:58.933,f7:68:33:b1:9e:f1, 2015-01-01 01:03:01.200, 0.118, 0.004, 0.885, -17.212, -237.244, -50.964, 3.543, -47.148, 94.664, -62.520, -49.127, -143.167, 23.75, -0.48343, -0.44928, 0.26987, -0.70105,
 08:16:58.933,f7:68:33:b1:9e:f1, 2015-01-01 01:03:01.200, 0.118, 0.004, 0.885, -17.212, -237.244, -50.964, 3.818, -48.378, 94.103, -62.520, -49.127, -143.167, 23.75, -0.48343, -0.44928, 0.26987, -0.70105,
 08:16:58.934,f7:68:33:b1:9e:f1, 2015-01-01 01:03:01.200, 0.606, 0.004, 0.885, -17.212, -237.244, -50.964, 4.12, -49.592, 93.527, -62.520, -49.127, -143.167, 23.75, -0.48343, -0.44928, 0.26987, -0.70105,
 08:16:58.934,f7:68:33:b1:9e:f1, 2015-01-01 01:03:01.200, 0.606, 0.054, 1.467, 154.358, -168.884, -65.002, 5.35, -50.438, 92.873, -62.520, -49.127, -143.167, 23.75, -0.48343, -0.44928, 0.26987, -0.70105,
 08:16:58.964,f7:68:33:b1:9e:f1, 2015-01-01 01:03:01.200, 0.606, 0.054, 1.467, 154.358, -168.884, -65.002, 6.619, -51.257, 92.186, -62.520, -49.127, -143.167, 23.75, -0.48343, -0.44928, 0.26987, -0.70105,
 08:16:58.964,f7:68:33:b1:9e:f1, 2015-01-01 01:03:01.200, 0.606, 0.054, 1.467, 154.358, -168.884, -65.002, 7.921, -52.053, 91.461, -62.520, -49.127, -143.167, 23.75, -0.48343, -0.44928, 0.26987, -0.70105,
 08:16:58.964,f7:68:33:b1:9e:f1, 2015-01-01 01:03:01.200, 0.63, 0.054, 1.467, 154.358, -168.884, -65.002, 9.261, -52.833, 90.698, -62.520, -49.127, -143.167, 23.75, -0.48343, -0.44928, 0.26987, -0.70105,
 08:16:58.964,f7:68:33:b1:9e:f1, 2015-01-01 01:03:01.200, 0.63, 0.196, 1.34, 91.919, -4.639, 36.255, 9.448, -52.883, 90.994, -62.520, -49.127, -143.167, 23.75, -0.48343, -0.44928, 0.26987, -0.70105,
 08:16:58.964,f7:68:33:b1:9e:f1, 2015-01-01 01:03:01.200, 0.63, 0.196, 1.34, 91.919, -4.639, 36.255, 9.646, -52.932, 91.291, -62.520, -49.127, -143.167, 23.75, -0.48343, -0.44928, 0.26987, -0.70105,
 08:16:58.964,f7:68:33:b1:9e:f1, 2015-01-01 01:03:01.200, 0.63, 0.196, 1.34, 91.919, -4.639, 36.255, 9.838, -52.976, 91.588, -62.520, -49.127, -143.167, 23.75, -0.48343, -0.44928, 0.26987, -0.70105,
 08:16:58.964,f7:68:33:b1:9e:f1, 2015-01-01 01:03:01.200, 0.51, 0.196, 1.34, 91.919, -4.639, 36.255, 10.036, -53.015, 91.89, -62.520, -49.127, -143.167, 23.75, -0.48343, -0.44928, 0.26987, -0.70105,
 08:16:58.964,f7:68:33:b1:9e:f1, 2015-01-01 01:03:01.200, 0.51, 0.322, 1.22, 79.041, 85.022, 66.65, 9.855, -52.641, 92.582, -62.520, -49.127, -143.167, 23.75, -0.48343, -0.44928, 0.26987, -0.70105,
 08:16:58.978,d6:24:01:31:b7:6e, 2015-01-01 00:58:45.785, 0.387, 0.121, 0.803, -114.014, 245.056, 112.671, -1.593, -32.635, -15.853, -38.313, 9.273, -36.353, 24.9, 0.95047, -0.11642, -0.25623, -0.13153,
 08:16:58.993,f7:68:33:b1:9e:f1, 2015-01-01 01:03:01.200, 0.51, 0.322, 1.22, 79.041, 85.022, 66.65, 9.69, -52.262, 93.268, -62.520, -49.127, -143.167, 23.75, -0.48343, -0.44928, 0.26987, -0.70105,
 08:16:58.993,f7:68:33:b1:9e:f1, 2015-01-01 01:03:01.200, 0.51, 0.322, 1.22, 79.041, 85.022, 66.65, 9.536, -51.877, 93.95, -62.520, -49.127, -143.167, 23.75, -0.48343, -0.44928, 0.26987, -0.70105,
 08:16:58.993,f7:68:33:b1:9e:f1, 2015-01-01 01:03:01.200, 0.624, 0.322, 1.22, 79.041, 85.022, 66.65, 9.393, -51.487, 94.62, -62.520, -49.127, -143.167, 23.75, -0.48343, -0.44928, 0.26987, -0.70105,
 08:16:58.993,f7:68:33:b1:9e:f1, 2015-01-01 01:03:01.200, 0.624, 0.318, 1.192, 43.457, 172.119, 34.058, 9.185, -50.641, 95.158, -62.520, -49.127, -143.167, 23.75, -0.48343, -0.44928, 0.26987, -0.70105,
 08:16:58.993,f7:68:33:b1:9e:f1, 2015-01-01 01:03:01.200, 0.624, 0.318, 1.192, 43.457, 172.119, 34.058, 8.992, -49.796, 95.68, -62.520, -49.127, -143.167, 23.75, -0.48343, -0.44928, 0.26987, -0.70105,
 08:16:58.994,f7:68:33:b1:9e:f1, 2015-01-01 01:03:01.200, 0.624, 0.318, 1.192, 43.457, 172.119, 34.058, 8.822, -48.944, 96.185, -62.520, -49.127, -143.167, 23.75, -0.48343, -0.44928, 0.26987, -0.70105,
 08:16:58.994,f7:68:33:b1:9e:f1, 2015-01-01 01:03:01.200, 0.643, 0.318, 1.192, 43.457, 172.119, 34.058, 8.663, -48.098, 96.685, -62.520, -49.127, -143.167, 23.75, -0.48343, -0.44928, 0.26987, -0.70105,
 08:16:58.994,f7:68:33:b1:9e:f1, 2015-01-01 01:03:01.200, 0.643, 0.318, 1.039, 9.033, 154.358, 34.363, 8.366, -47.335, 97.147, -62.520, -49.127, -143.167, 23.75, -0.48343, -0.44928, 0.26987, -0.70105,
 08:16:59.054,f7:68:33:b1:9e:f1, 2015-01-01 01:03:01.200, 0.643, 0.318, 1.039, 9.033, 154.358, 34.363, 8.086, -46.571, 97.597, -62.520, -49.127, -143.167, 23.75, -0.48343, -0.44928, 0.26987, -0.70105,
 08:16:59.054,f7:68:33:b1:9e:f1, 2015-01-01 01:03:01.200, 0.643, 0.318, 1.039, 9.033, 154.358, 34.363, 7.817, -45.813, 98.031, -62.520, -49.127, -143.167, 23.75, -0.48343, -0.44928, 0.26987, -0.70105,
 08:16:59.054,f7:68:33:b1:9e:f1, 2015-01-01 01:03:01.200, 0.859, 0.318, 1.039, 9.033, 154.358, 34.363, 7.564, -45.049, 98.459, -62.520, -49.127, -143.167, 23.75, -0.48343, -0.44928, 0.26987, -0.70105,
 08:16:59.054,f7:68:33:b1:9e:f1, 2015-01-01 01:03:01.200, 0.859, 0.014, 1.155, -41.077, 81.726, 7.446, 7.256, -44.626, 98.608, -62.520, -49.127, -143.167, 23.75, -0.48343, -0.44928, 0.26987, -0.70105,
 08:16:59.054,f7:68:33:b1:9e:f1, 2015-01-01 01:03:01.200, 0.859, 0.014, 1.155, -41.077, 81.726, 7.446, 6.954, -44.198, 98.751, -62.520, -49.127, -143.167, 23.75, -0.48343, -0.44928, 0.26987, -0.70105,
 08:16:59.054,f7:68:33:b1:9e:f1, 2015-01-01 01:03:01.200, 0.859, 0.014, 1.155, -41.077, 81.726, 7.446, 6.658, -43.775, 98.893, -62.520, -49.127, -143.167, 23.75, -0.48343, -0.44928, 0.26987, -0.70105,
 08:16:59.054,f7:68:33:b1:9e:f1, 2015-01-01 01:03:01.200, 1.073, 0.014, 1.155, -41.077, 81.726, 7.446, 6.356, -43.358, 99.025, -62.520, -49.127, -143.167, 23.75, -0.48343, -0.44928, 0.26987, -0.70105,
 08:16:59.054,f7:68:33:b1:9e:f1, 2015-01-01 01:03:01.200, 1.073, -0.303, 1.297, 43.274, 34.363, 41.077, 6.356, -43.193, 99.344, -62.520, -49.127, -143.167, 23.75, -0.48343, -0.44928, 0.26987, -0.70105,
 08:16:59.068,d6:24:01:31:b7:6e, 2015-01-01 00:58:46.145, 0.461, -0.014, 0.687, -73.73, -37.659, 31.555, -11.722, -31.663, -12.415, -38.313, 9.273, -36.353, 24.9, 0.95047, -0.11642, -0.25623, -0.13153,
 08:16:59.084,f7:68:33:b1:9e:f1, 2015-01-01 01:03:01.200, 1.073, -0.303, 1.297, 43.274, 34.363, 41.077, 6.35, -43.033, 99.657, -42.627, -47.287, -162.887, 23.75, -0.48343, -0.44928, 0.26987, -0.70105,
 08:16:59.084,f7:68:33:b1:9e:f1, 2015-01-01 01:03:01.200, 1.073, -0.303, 1.297, 43.274, 34.363, 41.077, 6.339, -42.874, 99.976, -42.627, -47.287, -162.887, 23.75, -0.48343, -0.44928, 0.26987, -0.70105,
 08:16:59.084,f7:68:33:b1:9e:f1, 2015-01-01 01:03:01.200, 0.838, -0.303, 1.297, 43.274, 34.363, 41.077, 6.328, -42.715, 100.289, -42.627, -47.287, -162.887, 23.75, -0.48343, -0.44928, 0.26987, -0.70105,
 08:16:59.084,f7:68:33:b1:9e:f1, 2015-01-01 01:03:01.200, 0.838, 0.027, 1.128, -21.057, 9.766, 14.038, 6.136, -42.66, 100.399, -42.627, -47.287, -162.887, 23.75, -0.48343, -0.44928, 0.26987, -0.70105,
 08:16:59.084,f7:68:33:b1:9e:f1, 2015-01-01 01:03:01.200, 0.838, 0.027, 1.128, -21.057, 9.766, 14.038, 5.949, -42.605, 100.503, -42.627, -47.287, -162.887, 23.75, -0.48343, -0.44928, 0.26987, -0.70105,
 08:16:59.084,f7:68:33:b1:9e:f1, 2015-01-01 01:03:01.200, 0.838, 0.027, 1.128, -21.057, 9.766, 14.038, 5.757, -42.55, 100.613, -42.627, -47.287, -162.887, 23.75, -0.48343, -0.44928, 0.26987, -0.70105,
 08:16:59.084,f7:68:33:b1:9e:f1, 2015-01-01 01:03:01.200, 0.743, 0.027, 1.128, -21.057, 9.766, 14.038, 5.565, -42.49, 100.717, -42.627, -47.287, -162.887, 23.75, -0.48343, -0.44928, 0.26987, -0.70105,
 08:16:59.085,f7:68:33:b1:9e:f1, 2015-01-01 01:03:01.200, 0.743, 0.17, 0.977, -3.296, 19.897, 11.719, 5.471, -42.385, 100.816, -42.627, -47.287, -162.887, 23.75, -0.48343, -0.44928, 0.26987, -0.70105,
 08:16:59.115,f7:68:33:b1:9e:f1, 2015-01-01 01:03:01.200, 0.743, 0.17, 0.977, -3.296, 19.897, 11.719, 5.378, -42.275, 100.915, -42.627, -47.287, -162.887, 23.75, -0.48343, -0.44928, 0.26987, -0.70105,
 08:16:59.115,f7:68:33:b1:9e:f1, 2015-01-01 01:03:01.200, 0.743, 0.17, 0.977, -3.296, 19.897, 11.719, 5.284, -42.171, 101.014, -42.627, -47.287, -162.887, 23.75, -0.48343, -0.44928, 0.26987, -0.70105,
 08:16:59.115,f7:68:33:b1:9e:f1, 2015-01-01 01:03:01.200, 0.734, 0.17, 0.977, -3.296, 19.897, 11.719, 5.197, -42.061, 101.113, -42.627, -47.287, -162.887, 23.75, -0.48343, -0.44928, 0.26987, -0.70105,
 08:16:59.115,f7:68:33:b1:9e:f1, 2015-01-01 01:03:01.200, 0.734, 0.183, 0.87, 1.16, 29.724, -2.197, 5.186, -41.902, 101.129, -42.627, -47.287, -162.887, 23.75, -0.48343, -0.44928, 0.26987, -0.70105,
 08:16:59.115,f7:68:33:b1:9e:f1, 2015-01-01 01:03:01.200, 0.734, 0.183, 0.87, 1.16, 29.724, -2.197, 5.18, -41.737, 101.14, -42.627, -47.287, -162.887, 23.75, -0.48343, -0.44928, 0.26987, -0.70105,
 08:16:59.115,f7:68:33:b1:9e:f1, 2015-01-01 01:03:01.200, 0.734, 0.183, 0.87, 1.16, 29.724, -2.197, 5.169, -41.578, 101.151, -42.627, -47.287, -162.887, 23.75, -0.48343, -0.44928, 0.26987, -0.70105,
 08:16:59.115,f7:68:33:b1:9e:f1, 2015-01-01 01:03:01.200, 0.759, 0.183, 0.87, 1.16, 29.724, -2.197, 5.164, -41.418, 101.168, -42.627, -47.287, -162.887, 23.75, -0.48343, -0.44928, 0.26987, -0.70105,
 08:16:59.115,f7:68:33:b1:9e:f1, 2015-01-01 01:03:01.200, 0.759, 0.09, 0.783, -5.615, 29.358, -14.282, 5.175, -41.254, 101.096, -42.627, -47.287, -162.887, 23.75, -0.48343, -0.44928, 0.26987, -0.70105,
 08:16:59.175,f7:68:33:b1:9e:f1, 2015-01-01 01:03:01.200, 0.759, 0.09, 0.783, -5.615, 29.358, -14.282, 5.191, -41.089, 101.03, -42.627, -47.287, -162.887, 23.75, -0.5759, -0.30988, 0.18085, -0.73453,
 08:16:59.175,f7:68:33:b1:9e:f1, 2015-01-01 01:03:01.200, 0.759, 0.09, 0.783, -5.615, 29.358, -14.282, 5.202, -40.924, 100.964, -42.627, -47.287, -162.887, 23.75, -0.5759, -0.30988, 0.18085, -0.73453,
 08:16:59.175,f7:68:33:b1:9e:f1, 2015-01-01 01:03:01.200, 0.755, 0.09, 0.783, -5.615, 29.358, -14.282, 5.213, -40.765, 100.898, -42.627, -47.287, -162.887, 23.75, -0.5759, -0.30988, 0.18085, -0.73453,
 08:16:59.175,f7:68:33:b1:9e:f1, 2015-01-01 01:03:01.200, 0.755, 0.1, 0.677, -29.785, 24.353, -22.888, 5.147, -40.622, 100.767, -42.627, -47.287, -162.887, 23.75, -0.5759, -0.30988, 0.18085, -0.73453,
 08:16:59.175,f7:68:33:b1:9e:f1, 2015-01-01 01:03:01.200, 0.377, 0.1, 0.677, -29.785, 24.353, -22.888, 5.076, -40.485, 100.64, -42.627, -47.287, -162.887, 23.75, -0.5759, -0.30988, 0.18085, -0.73453,
 08:16:59.175,f7:68:33:b1:9e:f1, 2015-01-01 01:03:01.200, 0.377, 0.05, 0.338, -29.785, 24.353, -22.888, 5.01, -40.347, 100.514, -42.627, -47.287, -162.887, 23.75, -0.5759, -0.30988, 0.18085, -0.73453,
 08:16:59.175,f7:68:33:b1:9e:f1, 2015-01-01 01:03:01.200, 0.688, 0.05, 0.338, -29.785, 24.353, -22.888, 4.938, -40.215, 100.388, -42.627, -47.287, -162.887, 23.75, -0.5759, -0.30988, 0.18085, -0.73453,
 08:16:59.175,f7:68:33:b1:9e:f1, 2015-01-01 01:03:01.200, 0.688, -0.055, 0.644, -19.226, 9.521, -7.324, 4.867, -40.161, 100.349, -42.627, -47.287, -162.887, 23.75, -0.5759, -0.30988, 0.18085, -0.73453,
 08:16:59.186,d6:24:01:31:b7:6e, 2015-01-01 00:58:46.145, 0.471, 0.052, 0.368, 6.348, -25.208, -42.542, -13.744, -32.261, -15.848, -38.313, 9.273, -36.353, 24.9, 0.95047, -0.11642, -0.25623, -0.13153,
 08:16:59.203,f7:68:33:b1:9e:f1, 2015-01-01 01:03:01.525, 0.688, -0.055, 0.644, -19.226, 9.521, -7.324, 4.79, -40.111, 100.311, -42.627, -47.287, -162.887, 23.75, -0.5759, -0.30988, 0.18085, -0.73453,
 08:16:59.203,f7:68:33:b1:9e:f1, 2015-01-01 01:03:01.525, 0.688, -0.055, 0.644, -19.226, 9.521, -7.324, 4.713, -40.062, 100.272, -42.627, -47.287, -162.887, 23.75, -0.5759, -0.30988, 0.18085, -0.73453,
 08:16:59.203,f7:68:33:b1:9e:f1, 2015-01-01 01:03:01.525, 0.708, -0.055, 0.644, -19.226, 9.521, -7.324, 4.636, -40.012, 100.234, -42.627, -47.287, -162.887, 23.75, -0.5759, -0.30988, 0.18085, -0.73453,
 08:16:59.203,f7:68:33:b1:9e:f1, 2015-01-01 01:03:01.525, 0.708, 0.11, 0.633, -47.668, 12.939, -13.428, 4.444, -39.946, 100.162, -42.627, -47.287, -162.887, 23.75, -0.5759, -0.30988, 0.18085, -0.73453,
 08:16:59.203,f7:68:33:b1:9e:f1, 2015-01-01 01:03:01.525, 0.708, 0.11, 0.633, -47.668, 12.939, -13.428, 4.252, -39.88, 100.085, -42.627, -47.287, -162.887, 23.75, -0.5759, -0.30988, 0.18085, -0.73453,
 08:16:59.204,f7:68:33:b1:9e:f1, 2015-01-01 01:03:01.525, 0.708, 0.11, 0.633, -47.668, 12.939, -13.428, 4.059, -39.814, 100.009, -42.627, -47.287, -162.887, 23.75, -0.5759, -0.30988, 0.18085, -0.73453,
 08:16:59.204,f7:68:33:b1:9e:f1, 2015-01-01 01:03:01.525, 0.69, 0.11, 0.633, -47.668, 12.939, -13.428, 3.867, -39.749, 99.932, -42.627, -47.287, -162.887, 23.75, -0.5759, -0.30988, 0.18085, -0.73453,
 08:16:59.204,f7:68:33:b1:9e:f1, 2015-01-01 01:03:01.525, 0.69, 0.081, 0.688, -42.114, -6.348, -17.334, 3.73, -39.781, 99.822, -42.627, -47.287, -162.887, 23.75, -0.5759, -0.30988, 0.18085, -0.73453,
 08:16:59.234,f7:68:33:b1:9e:f1, 2015-01-01 01:03:01.525, 0.69, 0.081, 0.688, -42.114, -6.348, -17.334, 3.593, -39.809, 99.706, -42.627, -47.287, -162.887, 23.75, -0.5759, -0.30988, 0.18085, -0.73453,
 08:16:59.234,f7:68:33:b1:9e:f1, 2015-01-01 01:03:01.525, 0.69, 0.081, 0.688, -42.114, -6.348, -17.334, 3.455, -39.842, 99.591, -42.627, -47.287, -162.887, 23.75, -0.5759, -0.30988, 0.18085, -0.73453,
 08:16:59.234,f7:68:33:b1:9e:f1, 2015-01-01 01:03:01.525, 0.665, 0.081, 0.688, -42.114, -6.348, -17.334, 3.318, -39.875, 99.481, -42.627, -47.287, -162.887, 23.75, -0.5759, -0.30988, 0.18085, -0.73453,
 08:16:59.234,f7:68:33:b1:9e:f1, 2015-01-01 01:03:01.525, 0.665, 0.197, 0.645, -59.082, 31.86, -49.805, 3.219, -39.705, 99.179, -42.627, -47.287, -162.887, 23.75, -0.5759, -0.30988, 0.18085, -0.73453,
 08:16:59.234,f7:68:33:b1:9e:f1, 2015-01-01 01:03:01.525, 0.665, 0.197, 0.645, -59.082, 31.86, -49.805, 3.12, -39.534, 98.877, -42.627, -47.287, -162.887, 23.75, -0.5759, -0.30988, 0.18085, -0.73453,
 08:16:59.234,f7:68:33:b1:9e:f1, 2015-01-01 01:03:01.525, 0.665, 0.197, 0.645, -59.082, 31.86, -49.805, 3.021, -39.364, 98.575, -42.627, -47.287, -162.887, 23.75, -0.5759, -0.30988, 0.18085, -0.73453,
 08:16:59.235,f7:68:33:b1:9e:f1, 2015-01-01 01:03:01.525, 0.602, 0.197, 0.645, -59.082, 31.86, -49.805, 2.928, -39.194, 98.278, -42.627, -47.287, -162.887, 23.75, -0.5759, -0.30988, 0.18085, -0.73453,
 08:16:59.235,f7:68:33:b1:9e:f1, 2015-01-01 01:03:01.525, 0.602, 0.246, 0.673, -137.512, 90.21, -80.872, 2.543, -38.727, 97.806, -42.627, -47.287, -162.887, 23.75, -0.5759, -0.30988, 0.18085, -0.73453,
 08:16:59.247,d6:24:01:31:b7:6e, 2015-01-01 00:58:46.145, 0.499, 0.003, 0.789, 75.378, 39.185, -29.663, -0.846, -29.355, -18.265, -33.067, 6.253, -38.673, 24.9, 0.95047, -0.11642, -0.25623, -0.13153,
 08:16:59.293,f7:68:33:b1:9e:f1, 2015-01-01 01:03:01.525, 0.602, 0.246, 0.673, -137.512, 90.21, -80.872, 2.164, -38.26, 97.339, -42.627, -47.287, -162.887, 23.75, -0.5759, -0.30988, 0.18085, -0.73453,
 08:16:59.293,f7:68:33:b1:9e:f1, 2015-01-01 01:03:01.525, 0.602, 0.246, 0.673, -137.512, 90.21, -80.872, 1.78, -37.798, 96.866, -42.627, -47.287, -162.887, 23.75, -0.5759, -0.30988, 0.18085, -0.73453,
 08:16:59.293,f7:68:33:b1:9e:f1, 2015-01-01 01:03:01.525, 0.602, 0.246, 0.673, -137.512, 90.21, -80.872, 1.401, -37.343, 96.4, -42.627, -47.287, -162.887, 23.75, -0.5759, -0.30988, 0.18085, -0.73453,
 08:16:59.293,f7:68:33:b1:9e:f1, 2015-01-01 01:03:01.525, 0.602, 0.246, 0.717, -245.972, 128.113, -89.783, 0.505, -36.7, 95.878, -42.627, -47.287, -162.887, 23.75, -0.5759, -0.30988, 0.18085, -0.73453,
 08:16:59.293,f7:68:33:b1:9e:f1, 2015-01-01 01:03:01.525, 0.602, 0.246, 0.717, -245.972, 128.113, -89.783, -0.385, -36.063, 95.356, -42.627, -47.287, -162.887, 23.75, -0.5759, -0.30988, 0.18085, -0.73453,
 08:16:59.293,f7:68:33:b1:9e:f1, 2015-01-01 01:03:01.525, 0.602, 0.246, 0.717, -245.972, 128.113, -89.783, -1.269, -35.431, 94.823, -42.627, -47.287, -162.887, 23.75, -0.5759, -0.30988, 0.18085, -0.73453,
 08:16:59.293,f7:68:33:b1:9e:f1, 2015-01-01 01:03:01.525, 0.638, 0.246, 0.717, -245.972, 128.113, -89.783, -2.148, -34.816, 94.279, -42.627, -47.287, -162.887, 23.75, -0.5759, -0.30988, 0.18085, -0.73453,
 08:16:59.293,f7:68:33:b1:9e:f1, 2015-01-01 01:03:01.525, 0.638, 0.183, 0.809, -337.219, 153.32, -148.01, -3.285, -34.08, 93.378, -42.627, -47.287, -162.887, 23.75, -0.5759, -0.30988, 0.18085, -0.73453,
 08:16:59.323,f7:68:33:b1:9e:f1, 2015-01-01 01:03:01.525, 0.638, 0.183, 0.809, -337.219, 153.32, -148.01, -4.422, -33.365, 92.466, -42.627, -47.287, -162.887, 23.75, -0.5759, -0.30988, 0.18085, -0.73453,
 08:16:59.323,f7:68:33:b1:9e:f1, 2015-01-01 01:03:01.525, 0.638, 0.183, 0.809, -337.219, 153.32, -148.01, -5.559, -32.668, 91.544, -42.627, -47.287, -162.887, 23.75, -0.5759, -0.30988, 0.18085, -0.73453,
 08:16:59.323,f7:68:33:b1:9e:f1, 2015-01-01 01:03:01.525, 0.56, 0.183, 0.809, -337.219, 153.32, -148.01, -6.696, -31.987, 90.615, -42.627, -47.287, -162.887, 23.75, -0.5759, -0.30988, 0.18085, -0.73453,
 08:16:59.323,f7:68:33:b1:9e:f1, 2015-01-01 01:03:01.525, 0.56, 0.016, 0.838, -149.597, 39.429, -188.049, -6.812, -31.899, 89.5, -42.627, -47.287, -162.887, 23.75, -0.5759, -0.30988, 0.18085, -0.73453,
 08:16:59.323,f7:68:33:b1:9e:f1, 2015-01-01 01:03:01.525, 0.56, 0.016, 0.838, -149.597, 39.429, -188.049, -6.927, -31.811, 88.391, -42.627, -47.287, -162.887, 23.75, -0.5759, -0.30988, 0.18085, -0.73453,
 08:16:59.323,f7:68:33:b1:9e:f1, 2015-01-01 01:03:01.525, 0.56, 0.016, 0.838, -149.597, 39.429, -188.049, -7.042, -31.723, 87.275, -42.627, -47.287, -162.887, 23.75, -0.5759, -0.30988, 0.18085, -0.73453,
 08:16:59.323,f7:68:33:b1:9e:f1, 2015-01-01 01:03:01.525, 0.492, 0.016, 0.838, -149.597, 39.429, -188.049, -7.163, -31.635, 86.166, -42.627, -47.287, -162.887, 23.75, -0.5759, -0.30988, 0.18085, -0.73453,
 08:16:59.323,f7:68:33:b1:9e:f1, 2015-01-01 01:03:01.525, 0.492, 0.035, 0.954, -36.255, 17.395, -148.376, -6.844, -31.641, 85.298, -42.627, -47.287, -162.887, 23.75, -0.5759, -0.30988, 0.18085, -0.73453,
 08:16:59.354,f7:68:33:b1:9e:f1, 2015-01-01 01:03:01.525, 0.492, 0.035, 0.954, -36.255, 17.395, -148.376, -6.531, -31.635, 84.43, -42.627, -47.287, -162.887, 23.75, -0.5759, -0.30988, 0.18085, -0.73453,
 08:16:59.354,f7:68:33:b1:9e:f1, 2015-01-01 01:03:01.525, 0.492, 0.035, 0.954, -36.255, 17.395, -148.376, -6.218, -31.63, 83.562, -42.627, -47.287, -162.887, 23.75, -0.5759, -0.30988, 0.18085, -0.73453,
