time	DeviceName	AccX(g)	AccY(g)	AccZ(g)	AsX(°/s)	AsY(°/s)	AsZ(°/s)	AngleX(°)	AngleY(°)	AngleZ(°)	HX(uT)	HY(uT)	HZ(uT)	Q0()	Q1()	Q2()	Q3()	Temperature(°C)	Version()	Battery level(%)
2025-5-21 22:28:31.597	WT901BLE68(B088180A53F4)	-0.004	0.034	1.015	0.000	0.000	0.000	-0.52	-0.30	59.78	-45.583	-86.525	-180.108	0.86731	0.01053	0.00455	0.49750	23.1	13113	100
2025-5-21 22:28:31.597	WT901BLE68(B088180A53F4)	-0.007	0.034	1.015	0.000	0.000	0.000	-0.52	-0.30	59.79	-45.583	-86.525	-180.108	0.86731	0.01053	0.00455	0.49750	23.1	13113	100
2025-5-21 22:28:31.597	WT901BLE68(B088180A53F4)	-0.007	0.036	1.016	-0.122	0.000	0.000	-0.52	-0.30	59.79	-45.583	-86.525	-180.108	0.86685	0.01047	0.00467	0.49835	23.1	13113	100
2025-5-21 22:28:31.597	WT901BLE68(B088180A53F4)	-0.007	0.036	1.016	-0.122	0.000	0.000	-0.52	-0.30	59.79	-45.583	-86.525	-180.108	0.86685	0.01047	0.00467	0.49835	23.1	13113	100
2025-5-21 22:28:31.597	WT901BLE68(B088180A53F4)	-0.007	0.036	1.016	-0.122	0.000	0.000	-0.52	-0.30	59.79	-45.583	-86.525	-180.108	0.86685	0.01047	0.00467	0.49835	23.1	13113	100
2025-5-21 22:28:31.597	WT901BLE68(B088180A53F4)	-0.004	0.036	1.016	-0.122	0.000	0.000	-0.52	-0.29	59.79	-45.583	-86.525	-180.108	0.86685	0.01047	0.00467	0.49835	23.1	13113	100
2025-5-21 22:28:31.597	WT901BLE68(B088180A53F4)	-0.004	0.033	1.014	-0.366	-0.122	0.000	-0.52	-0.29	59.79	-45.583	-86.525	-180.108	0.86685	0.01047	0.00467	0.49835	23.1	13113	100
2025-5-21 22:28:31.597	WT901BLE68(B088180A53F4)	-0.004	0.033	1.014	-0.366	-0.122	0.000	-0.52	-0.29	59.79	-45.583	-86.525	-180.108	0.86685	0.01047	0.00467	0.49835	23.1	13113	100
2025-5-21 22:28:31.641	WT901BLE68(B088180A53F4)	-0.004	0.033	1.014	-0.366	-0.122	0.000	-0.52	-0.29	59.79	-45.583	-86.525	-180.108	0.86685	0.01047	0.00467	0.49835	23.1	13113	100
2025-5-21 22:28:31.642	WT901BLE68(B088180A53F4)	0.002	0.033	1.014	-0.366	-0.122	0.000	-0.52	-0.29	59.79	-45.583	-86.525	-180.108	0.86685	0.01047	0.00467	0.49835	23.1	13113	100
2025-5-21 22:28:31.642	WT901BLE68(B088180A53F4)	0.002	0.021	1.013	-0.366	-0.122	0.000	-0.52	-0.29	59.80	-45.583	-86.525	-180.108	0.86685	0.01047	0.00467	0.49835	23.1	13113	100
2025-5-21 22:28:31.642	WT901BLE68(B088180A53F4)	0.002	0.021	1.013	-0.366	-0.122	0.000	-0.52	-0.29	59.80	-45.583	-86.525	-180.108	0.86685	0.01047	0.00467	0.49835	23.1	13113	100
2025-5-21 22:28:31.642	WT901BLE68(B088180A53F4)	0.002	0.021	1.013	-0.366	-0.122	0.000	-0.52	-0.29	59.80	-45.583	-86.525	-180.108	0.86685	0.01047	0.00467	0.49835	23.1	13113	100
2025-5-21 22:28:31.642	WT901BLE68(B088180A53F4)	0.004	0.021	1.013	-0.366	-0.122	0.000	-0.52	-0.30	59.80	-45.583	-86.525	-180.108	0.86685	0.01047	0.00467	0.49835	23.1	13113	100
2025-5-21 22:28:31.642	WT901BLE68(B088180A53F4)	0.004	0.010	1.012	-0.183	-0.061	0.000	-0.52	-0.29	59.80	-45.583	-86.525	-180.108	0.86685	0.01047	0.00467	0.49835	23.1	13113	100
2025-5-21 22:28:31.642	WT901BLE68(B088180A53F4)	0.004	0.010	1.012	-0.183	-0.061	0.000	-0.52	-0.29	59.80	-45.583	-86.525	-180.108	0.86685	0.01047	0.00467	0.49835	23.1	13113	100
2025-5-21 22:28:31.653	WT901BLE68(4F145CEDD531)	0.061	0.029	1.031	0.122	0.061	0.000	1.47	-3.25	-100.51	-58.375	-11.058	-22.983	-0.63931	0.01355	0.02802	0.76825	25.6	13113	90
2025-5-21 22:28:31.684	WT901BLE68(B088180A53F4)	0.004	0.010	1.012	-0.183	-0.061	0.000	-0.52	-0.29	59.80	-45.583	-86.525	-180.108	0.86685	0.01047	0.00467	0.49835	23.1	13113	100
2025-5-21 22:28:31.684	WT901BLE68(B088180A53F4)	0.002	0.010	1.012	-0.183	-0.061	0.000	-0.53	-0.29	59.80	-45.583	-86.525	-180.108	0.86685	0.01047	0.00467	0.49835	23.1	13113	100
2025-5-21 22:28:31.684	WT901BLE68(B088180A53F4)	0.002	0.008	1.012	0.000	-0.061	0.000	-0.53	-0.29	59.80	-45.583	-86.525	-180.108	0.86685	0.01047	0.00467	0.49835	23.1	13113	100
2025-5-21 22:28:31.684	WT901BLE68(B088180A53F4)	0.002	0.008	1.012	0.000	-0.061	0.000	-0.53	-0.29	59.80	-45.583	-86.525	-180.108	0.86685	0.01047	0.00467	0.49835	23.1	13113	100
2025-5-21 22:28:31.684	WT901BLE68(B088180A53F4)	0.002	0.008	1.012	0.000	-0.061	0.000	-0.53	-0.29	59.81	-45.583	-86.525	-180.108	0.86685	0.01047	0.00467	0.49835	23.1	13113	100
2025-5-21 22:28:31.684	WT901BLE68(B088180A53F4)	0.002	0.011	1.012	0.122	0.000	0.000	-0.52	-0.29	59.81	-45.583	-86.525	-180.108	0.86685	0.01047	0.00467	0.49835	23.1	13113	100
2025-5-21 22:28:31.684	WT901BLE68(B088180A53F4)	0.002	0.011	1.012	0.122	0.000	0.000	-0.52	-0.29	59.81	-45.583	-86.525	-180.108	0.86685	0.01047	0.00467	0.49835	23.1	13113	100
2025-5-21 22:28:31.684	WT901BLE68(B088180A53F4)	0.002	0.011	1.012	0.122	0.000	0.000	-0.52	-0.29	59.81	-45.583	-86.525	-180.108	0.86685	0.01047	0.00467	0.49835	23.1	13113	100
2025-5-21 22:28:31.711	WT901BLE68(B088180A53F4)	0.005	0.011	1.012	0.122	0.000	0.000	-0.52	-0.29	59.82	-45.583	-86.525	-180.108	0.86685	0.01047	0.00467	0.49835	23.1	13113	100
2025-5-21 22:28:31.711	WT901BLE68(B088180A53F4)	0.005	0.016	1.012	0.305	0.000	0.000	-0.52	-0.29	59.82	-45.583	-86.525	-180.108	0.86685	0.01047	0.00467	0.49835	23.1	13113	100
2025-5-21 22:28:31.711	WT901BLE68(B088180A53F4)	0.005	0.016	1.012	0.305	0.000	0.000	-0.52	-0.29	59.82	-45.583	-86.525	-180.108	0.86685	0.01047	0.00467	0.49835	23.1	13113	100
2025-5-21 22:28:31.711	WT901BLE68(B088180A53F4)	0.005	0.016	1.012	0.305	0.000	0.000	-0.52	-0.29	59.82	-45.583	-86.525	-180.108	0.86685	0.01047	0.00467	0.49835	23.1	13113	100
2025-5-21 22:28:31.711	WT901BLE68(B088180A53F4)	0.005	0.016	1.012	0.305	0.000	0.000	-0.52	-0.29	59.82	-45.583	-86.525	-180.108	0.86685	0.01047	0.00467	0.49835	23.1	13113	100
2025-5-21 22:28:31.711	WT901BLE68(B088180A53F4)	0.005	0.027	1.015	0.366	0.122	0.000	-0.52	-0.29	59.82	-45.583	-86.525	-180.108	0.86685	0.01047	0.00467	0.49835	23.1	13113	100
2025-5-21 22:28:31.711	WT901BLE68(B088180A53F4)	0.005	0.027	1.015	0.366	0.122	0.000	-0.52	-0.29	59.82	-45.583	-86.525	-180.108	0.86685	0.01047	0.00467	0.49835	23.1	13113	100
2025-5-21 22:28:31.711	WT901BLE68(B088180A53F4)	0.005	0.027	1.015	0.366	0.122	0.000	-0.52	-0.29	59.82	-45.583	-86.525	-180.108	0.86685	0.01047	0.00467	0.49835	23.1	13113	100
2025-5-21 22:28:31.721	WT901BLE68(4F145CEDD531)	0.064	0.017	1.028	-0.305	-0.061	0.000	1.47	-3.25	-100.50	-58.375	-11.058	-22.983	-0.63931	0.01355	0.02802	0.76825	25.6	13113	90
2025-5-21 22:28:31.755	WT901BLE68(B088180A53F4)	0.003	0.027	1.015	0.366	0.122	0.000	-0.52	-0.29	59.82	-45.583	-86.525	-180.108	0.86685	0.01047	0.00467	0.49835	23.1	13113	100
2025-5-21 22:28:31.755	WT901BLE68(B088180A53F4)	0.003	0.035	1.016	0.305	0.183	0.000	-0.51	-0.29	59.82	-45.583	-86.525	-180.108	0.86685	0.01047	0.00467	0.49835	23.1	13113	100
2025-5-21 22:28:31.755	WT901BLE68(B088180A53F4)	0.003	0.035	1.016	0.305	0.183	0.000	-0.51	-0.29	59.83	-45.583	-86.525	-180.108	0.86685	0.01047	0.00467	0.49835	23.1	13113	100
2025-5-21 22:28:31.755	WT901BLE68(B088180A53F4)	0.003	0.035	1.016	0.305	0.183	0.000	-0.51	-0.29	59.83	-45.583	-86.525	-180.108	0.86685	0.01047	0.00467	0.49835	23.1	13113	100
2025-5-21 22:28:31.755	WT901BLE68(B088180A53F4)	-0.001	0.035	1.016	0.305	0.183	0.000	-0.51	-0.29	59.83	-45.583	-86.525	-180.108	0.86685	0.01047	0.00467	0.49835	23.1	13113	100
2025-5-21 22:28:31.755	WT901BLE68(B088180A53F4)	-0.001	0.040	1.016	0.183	0.122	0.000	-0.51	-0.29	59.83	-45.583	-86.525	-180.108	0.86685	0.01047	0.00467	0.49835	23.1	13113	100
2025-5-21 22:28:31.755	WT901BLE68(B088180A53F4)	-0.001	0.040	1.016	0.183	0.122	0.000	-0.51	-0.29	59.83	-45.583	-86.525	-180.108	0.86685	0.01047	0.00467	0.49835	23.1	13113	100
2025-5-21 22:28:31.755	WT901BLE68(B088180A53F4)	-0.001	0.040	1.016	0.183	0.122	0.000	-0.51	-0.29	59.83	-45.583	-86.525	-180.108	0.86685	0.01047	0.00467	0.49835	23.1	13113	100
2025-5-21 22:28:31.798	WT901BLE68(B088180A53F4)	-0.006	0.040	1.016	0.183	0.122	0.000	-0.51	-0.29	59.83	-45.583	-86.525	-180.108	0.86685	0.01047	0.00467	0.49835	23.1	13113	100
2025-5-21 22:28:31.798	WT901BLE68(B088180A53F4)	-0.006	0.036	1.016	0.000	0.061	0.000	-0.51	-0.29	59.83	-45.583	-86.525	-180.108	0.86685	0.01047	0.00467	0.49835	23.1	13113	100
2025-5-21 22:28:31.798	WT901BLE68(B088180A53F4)	-0.006	0.036	1.016	0.000	0.061	0.000	-0.50	-0.28	59.83	-45.600	-86.508	-180.675	0.86685	0.01047	0.00467	0.49835	23.1	13113	100
2025-5-21 22:28:31.798	WT901BLE68(B088180A53F4)	-0.006	0.036	1.016	0.000	0.061	0.000	-0.50	-0.28	59.83	-45.600	-86.508	-180.675	0.86685	0.01047	0.00467	0.49835	23.1	13113	100
2025-5-21 22:28:31.798	WT901BLE68(B088180A53F4)	-0.007	0.036	1.016	0.000	0.061	0.000	-0.50	-0.28	59.84	-45.600	-86.508	-180.675	0.86685	0.01047	0.00467	0.49835	23.1	13113	100
2025-5-21 22:28:31.798	WT901BLE68(B088180A53F4)	-0.007	0.032	1.015	-0.122	0.000	0.000	-0.50	-0.28	59.84	-45.600	-86.508	-180.675	0.86685	0.01047	0.00467	0.49835	23.1	13113	100
2025-5-21 22:28:31.798	WT901BLE68(B088180A53F4)	-0.007	0.032	1.015	-0.122	0.000	0.000	-0.50	-0.28	59.84	-45.600	-86.508	-180.675	0.86685	0.01047	0.00467	0.49835	23.1	13113	100
2025-5-21 22:28:31.798	WT901BLE68(B088180A53F4)	-0.007	0.032	1.015	-0.122	0.000	0.000	-0.50	-0.28	59.84	-45.600	-86.508	-180.675	0.86685	0.01047	0.00467	0.49835	23.1	13113	100
2025-5-21 22:28:31.843	WT901BLE68(B088180A53F4)	-0.006	0.032	1.015	-0.122	0.000	0.000	-0.50	-0.28	59.84	-45.600	-86.508	-180.675	0.86685	0.01047	0.00467	0.49835	23.1	13113	100
2025-5-21 22:28:31.843	WT901BLE68(B088180A53F4)	-0.006	0.029	1.014	-0.183	-0.122	0.000	-0.50	-0.28	59.84	-45.600	-86.508	-180.675	0.86685	0.01047	0.00467	0.49835	23.1	13113	100
2025-5-21 22:28:31.843	WT901BLE68(B088180A53F4)	-0.006	0.029	1.014	-0.183	-0.122	0.000	-0.50	-0.28	59.84	-45.600	-86.508	-180.675	0.86685	0.01047	0.00467	0.49835	23.1	13113	100
2025-5-21 22:28:31.843	WT901BLE68(B088180A53F4)	-0.006	0.029	1.014	-0.183	-0.122	0.000	-0.50	-0.28	59.84	-45.600	-86.508	-180.675	0.86685	0.01047	0.00467	0.49835	23.1	13113	100
2025-5-21 22:28:31.843	WT901BLE68(B088180A53F4)	-0.002	0.029	1.014	-0.183	-0.122	0.000	-0.50	-0.28	59.84	-45.600	-86.508	-180.675	0.86685	0.01047	0.00467	0.49835	23.1	13113	100
2025-5-21 22:28:31.843	WT901BLE68(B088180A53F4)	-0.002	0.027	1.014	-0.244	-0.183	0.000	-0.50	-0.28	59.84	-45.600	-86.508	-180.675	0.86685	0.01047	0.00467	0.49835	23.1	13113	100
2025-5-21 22:28:31.843	WT901BLE68(B088180A53F4)	-0.002	0.027	1.014	-0.244	-0.183	0.000	-0.50	-0.28	59.85	-45.600	-86.508	-180.675	0.86685	0.01047	0.00467	0.49835	23.1	13113	100
2025-5-21 22:28:31.844	WT901BLE68(B088180A53F4)	-0.002	0.027	1.014	-0.244	-0.183	0.000	-0.50	-0.28	59.85	-45.600	-86.508	-180.675	0.86685	0.01047	0.00467	0.49835	23.1	13113	100
2025-5-21 22:28:31.856	WT901BLE68(4F145CEDD531)	0.053	0.030	1.032	0.549	0.122	0.000	1.47	-3.25	-100.49	-58.342	-10.758	-22.675	-0.63931	0.01355	0.02802	0.76825	25.6	13113	90
2025-5-21 22:28:31.888	WT901BLE68(B088180A53F4)	0.002	0.027	1.014	-0.244	-0.183	0.000	-0.50	-0.28	59.85	-45.600	-86.508	-180.675	0.86685	0.01047	0.00467	0.49835	23.1	13113	100
2025-5-21 22:28:31.888	WT901BLE68(B088180A53F4)	0.002	0.024	1.014	-0.244	-0.183	0.000	-0.50	-0.28	59.85	-45.600	-86.508	-180.675	0.86685	0.01047	0.00467	0.49835	23.1	13113	100
2025-5-21 22:28:31.888	WT901BLE68(B088180A53F4)	0.002	0.024	1.014	-0.244	-0.183	0.000	-0.50	-0.28	59.85	-45.600	-86.508	-180.675	0.86685	0.01047	0.00467	0.49835	23.1	13113	100
2025-5-21 22:28:31.888	WT901BLE68(B088180A53F4)	0.002	0.024	1.014	-0.244	-0.183	0.000	-0.50	-0.28	59.85	-45.600	-86.508	-180.675	0.86685	0.01047	0.00467	0.49835	23.1	13113	100
2025-5-21 22:28:31.888	WT901BLE68(B088180A53F4)	0.006	0.024	1.014	-0.244	-0.183	0.000	-0.50	-0.28	59.85	-45.600	-86.508	-180.675	0.86685	0.01047	0.00467	0.49835	23.1	13113	100
2025-5-21 22:28:31.888	WT901BLE68(B088180A53F4)	0.006	0.021	1.014	-0.183	-0.122	0.000	-0.50	-0.28	59.85	-45.600	-86.508	-180.675	0.86685	0.01047	0.00467	0.49835	23.1	13113	100
2025-5-21 22:28:31.888	WT901BLE68(B088180A53F4)	0.006	0.021	1.014	-0.183	-0.122	0.000	-0.50	-0.28	59.85	-45.600	-86.508	-180.675	0.86685	0.01047	0.00467	0.49835	23.1	13113	100
2025-5-21 22:28:31.888	WT901BLE68(B088180A53F4)	0.006	0.021	1.014	-0.183	-0.122	0.000	-0.51	-0.28	59.85	-45.600	-86.508	-180.675	0.86685	0.01047	0.00467	0.49835	23.1	13113	100
2025-5-21 22:28:31.912	WT901BLE68(B088180A53F4)	0.003	0.021	1.014	-0.183	-0.122	0.000	-0.51	-0.28	59.85	-45.600	-86.508	-180.675	0.86685	0.01047	0.00467	0.49835	23.1	13113	100
2025-5-21 22:28:31.912	WT901BLE68(B088180A53F4)	0.003	0.020	1.013	-0.122	-0.061	0.000	-0.51	-0.28	59.86	-45.600	-86.508	-180.675	0.86685	0.01047	0.00467	0.49835	23.1	13113	100
2025-5-21 22:28:31.912	WT901BLE68(B088180A53F4)	0.003	0.020	1.013	-0.122	-0.061	0.000	-0.51	-0.28	59.86	-45.600	-86.508	-180.675	0.86685	0.01047	0.00467	0.49835	23.1	13113	100
2025-5-21 22:28:31.912	WT901BLE68(B088180A53F4)	0.003	0.020	1.013	-0.122	-0.061	0.000	-0.51	-0.28	59.86	-45.600	-86.508	-180.675	0.86685	0.01047	0.00467	0.49835	23.1	13113	100
2025-5-21 22:28:31.912	WT901BLE68(B088180A53F4)	-0.001	0.020	1.013	-0.122	-0.061	0.000	-0.51	-0.28	59.86	-45.600	-86.508	-180.675	0.86685	0.01047	0.00467	0.49835	23.1	13113	100
2025-5-21 22:28:31.912	WT901BLE68(B088180A53F4)	-0.001	0.019	1.014	-0.122	0.000	0.000	-0.51	-0.28	59.86	-45.600	-86.508	-180.675	0.86685	0.01047	0.00467	0.49835	23.1	13113	100
2025-5-21 22:28:31.912	WT901BLE68(B088180A53F4)	-0.001	0.019	1.014	-0.122	0.000	0.000	-0.51	-0.28	59.86	-45.600	-86.508	-180.675	0.86685	0.01047	0.00467	0.49835	23.1	13113	100
2025-5-21 22:28:31.912	WT901BLE68(B088180A53F4)	-0.001	0.019	1.014	-0.122	0.000	0.000	-0.51	-0.28	59.86	-45.600	-86.508	-180.675	0.86685	0.01047	0.00467	0.49835	23.1	13113	100
2025-5-21 22:28:31.925	WT901BLE68(4F145CEDD531)	0.055	0.030	1.030	-0.122	-0.061	0.000	1.49	-3.24	-100.49	-58.342	-10.758	-22.675	-0.63931	0.01355	0.02802	0.76825	25.6	13113	90
2025-5-21 22:28:31.958	WT901BLE68(B088180A53F4)	-0.007	0.019	1.014	-0.122	0.000	0.000	-0.51	-0.28	59.86	-45.600	-86.508	-180.675	0.86685	0.01047	0.00467	0.49835	23.1	13113	100
2025-5-21 22:28:31.958	WT901BLE68(B088180A53F4)	-0.007	0.017	1.012	-0.061	-0.061	0.000	-0.51	-0.28	59.86	-45.600	-86.508	-180.675	0.86685	0.01047	0.00467	0.49835	23.1	13113	100
2025-5-21 22:28:31.958	WT901BLE68(B088180A53F4)	-0.007	0.017	1.012	-0.061	-0.061	0.000	-0.51	-0.28	59.86	-45.600	-86.508	-180.675	0.86685	0.01047	0.00467	0.49835	23.1	13113	100
2025-5-21 22:28:31.958	WT901BLE68(B088180A53F4)	-0.007	0.017	1.012	-0.061	-0.061	0.000	-0.51	-0.28	59.86	-45.600	-86.508	-180.675	0.86685	0.01047	0.00467	0.49835	23.1	13113	100
2025-5-21 22:28:31.958	WT901BLE68(B088180A53F4)	-0.006	0.017	1.012	-0.061	-0.061	0.000	-0.51	-0.28	59.87	-45.600	-86.508	-180.675	0.86685	0.01047	0.00467	0.49835	23.1	13113	100
2025-5-21 22:28:31.958	WT901BLE68(B088180A53F4)	-0.006	0.017	1.012	0.000	-0.122	0.000	-0.51	-0.28	59.87	-45.600	-86.508	-180.675	0.86685	0.01047	0.00467	0.49835	23.1	13113	100
2025-5-21 22:28:31.958	WT901BLE68(B088180A53F4)	-0.006	0.017	1.012	0.000	-0.122	0.000	-0.51	-0.28	59.87	-45.600	-86.508	-180.675	0.86649	0.01047	0.00482	0.49899	23.1	13113	100
2025-5-21 22:28:31.958	WT901BLE68(B088180A53F4)	-0.006	0.017	1.012	0.000	-0.122	0.000	-0.51	-0.28	59.87	-45.600	-86.508	-180.675	0.86649	0.01047	0.00482	0.49899	23.1	13113	100
2025-5-21 22:28:32.1	WT901BLE68(B088180A53F4)	-0.002	0.017	1.012	0.000	-0.122	0.000	-0.51	-0.28	59.87	-45.600	-86.508	-180.675	0.86649	0.01047	0.00482	0.49899	23.1	13113	100
2025-5-21 22:28:32.1	WT901BLE68(B088180A53F4)	-0.002	0.023	1.014	0.122	-0.183	-0.305	-0.51	-0.28	59.87	-45.600	-86.508	-180.675	0.86649	0.01047	0.00482	0.49899	23.1	13113	100
2025-5-21 22:28:32.1	WT901BLE68(B088180A53F4)	-0.002	0.023	1.014	0.122	-0.183	-0.305	-0.51	-0.28	59.87	-45.600	-86.508	-180.675	0.86649	0.01047	0.00482	0.49899	23.1	13113	100
2025-5-21 22:28:32.1	WT901BLE68(B088180A53F4)	-0.002	0.023	1.014	0.122	-0.183	-0.305	-0.51	-0.28	59.87	-45.600	-86.508	-180.675	0.86649	0.01047	0.00482	0.49899	23.1	13113	100
2025-5-21 22:28:32.1	WT901BLE68(B088180A53F4)	0.001	0.023	1.014	0.122	-0.183	-0.305	-0.51	-0.28	59.87	-45.600	-86.508	-180.675	0.86649	0.01047	0.00482	0.49899	23.1	13113	100
2025-5-21 22:28:32.1	WT901BLE68(B088180A53F4)	0.001	0.030	1.013	-0.122	-0.305	-0.366	-0.51	-0.28	59.87	-45.600	-86.508	-180.675	0.86649	0.01047	0.00482	0.49899	23.1	13113	100
2025-5-21 22:28:32.2	WT901BLE68(B088180A53F4)	0.001	0.030	1.013	-0.122	-0.305	-0.366	-0.51	-0.28	59.86	-45.600	-86.508	-180.675	0.86649	0.01047	0.00482	0.49899	23.1	13113	100
2025-5-21 22:28:32.2	WT901BLE68(B088180A53F4)	0.001	0.030	1.013	-0.122	-0.305	-0.366	-0.51	-0.29	59.86	-45.600	-86.508	-180.675	0.86649	0.01047	0.00482	0.49899	23.1	13113	100
2025-5-21 22:28:32.34	WT901BLE68(4F145CEDD531)	0.046	0.020	1.030	-0.061	0.000	0.000	1.48	-3.25	-100.48	-58.342	-10.758	-22.675	-0.63950	0.01355	0.02802	0.76810	25.6	13113	90
2025-5-21 22:28:32.47	WT901BLE68(B088180A53F4)	0.007	0.030	1.013	-0.122	-0.305	-0.366	-0.51	-0.29	59.86	-45.600	-86.508	-180.675	0.86649	0.01047	0.00482	0.49899	23.1	13113	100
2025-5-21 22:28:32.47	WT901BLE68(B088180A53F4)	0.007	0.037	1.018	0.183	-0.061	-0.244	-0.51	-0.29	59.86	-45.600	-86.508	-180.675	0.86649	0.01047	0.00482	0.49899	23.1	13113	100
2025-5-21 22:28:32.47	WT901BLE68(B088180A53F4)	0.007	0.037	1.018	0.183	-0.061	-0.244	-0.51	-0.29	59.86	-45.600	-86.508	-180.675	0.86649	0.01047	0.00482	0.49899	23.1	13113	100
2025-5-21 22:28:32.47	WT901BLE68(B088180A53F4)	0.007	0.037	1.018	0.183	-0.061	-0.244	-0.51	-0.29	59.86	-45.600	-86.508	-180.675	0.86649	0.01047	0.00482	0.49899	23.1	13113	100
2025-5-21 22:28:32.48	WT901BLE68(B088180A53F4)	0.010	0.037	1.018	0.183	-0.061	-0.244	-0.51	-0.29	59.86	-45.600	-86.508	-180.675	0.86649	0.01047	0.00482	0.49899	23.1	13113	100
2025-5-21 22:28:32.48	WT901BLE68(B088180A53F4)	0.010	0.033	1.015	0.610	0.122	0.000	-0.50	-0.29	59.86	-45.600	-86.508	-180.675	0.86649	0.01047	0.00482	0.49899	23.1	13113	100
2025-5-21 22:28:32.48	WT901BLE68(B088180A53F4)	0.010	0.033	1.015	0.610	0.122	0.000	-0.49	-0.28	59.86	-45.600	-86.508	-180.675	0.86649	0.01047	0.00482	0.49899	23.1	13113	100
2025-5-21 22:28:32.48	WT901BLE68(B088180A53F4)	0.010	0.033	1.015	0.610	0.122	0.000	-0.49	-0.28	59.86	-45.600	-86.508	-180.675	0.86649	0.01047	0.00482	0.49899	23.1	13113	100
2025-5-21 22:28:32.90	WT901BLE68(B088180A53F4)	0.003	0.033	1.015	0.610	0.122	0.000	-0.49	-0.28	59.87	-45.600	-86.508	-180.675	0.86649	0.01047	0.00482	0.49899	23.1	13113	100
2025-5-21 22:28:32.90	WT901BLE68(B088180A53F4)	0.003	0.042	1.018	-0.793	-0.244	0.061	-0.49	-0.28	59.87	-45.600	-86.508	-180.675	0.86649	0.01047	0.00482	0.49899	23.1	13113	100
2025-5-21 22:28:32.90	WT901BLE68(B088180A53F4)	0.003	0.042	1.018	-0.793	-0.244	0.061	-0.49	-0.29	59.87	-45.600	-86.508	-180.675	0.86649	0.01047	0.00482	0.49899	23.1	13113	100
2025-5-21 22:28:32.90	WT901BLE68(B088180A53F4)	0.003	0.042	1.018	-0.793	-0.244	0.061	-0.50	-0.29	59.87	-45.600	-86.508	-180.675	0.86649	0.01047	0.00482	0.49899	23.1	13113	100
2025-5-21 22:28:32.90	WT901BLE68(B088180A53F4)	-0.004	0.042	1.018	-0.793	-0.244	0.061	-0.50	-0.29	59.87	-45.600	-86.508	-180.675	0.86649	0.01047	0.00482	0.49899	23.1	13113	100
2025-5-21 22:28:32.90	WT901BLE68(B088180A53F4)	-0.004	0.045	1.019	-0.061	0.061	0.122	-0.50	-0.29	59.88	-45.600	-86.508	-180.675	0.86649	0.01047	0.00482	0.49899	23.1	13113	100
2025-5-21 22:28:32.90	WT901BLE68(B088180A53F4)	-0.004	0.045	1.019	-0.061	0.061	0.122	-0.50	-0.29	59.88	-45.600	-86.508	-180.675	0.86649	0.01047	0.00482	0.49899	23.1	13113	100
2025-5-21 22:28:32.90	WT901BLE68(B088180A53F4)	-0.004	0.045	1.019	-0.061	0.061	0.122	-0.50	-0.29	59.88	-45.600	-86.508	-180.675	0.86649	0.01047	0.00482	0.49899	23.1	13113	100
2025-5-21 22:28:32.115	WT901BLE68(B088180A53F4)	-0.002	0.045	1.019	-0.061	0.061	0.122	-0.49	-0.29	59.88	-45.600	-86.508	-180.675	0.86649	0.01047	0.00482	0.49899	23.1	13113	100
2025-5-21 22:28:32.115	WT901BLE68(B088180A53F4)	-0.002	0.024	1.013	0.244	0.122	0.183	-0.49	-0.29	59.88	-45.600	-86.508	-180.675	0.86649	0.01047	0.00482	0.49899	23.1	13113	100
2025-5-21 22:28:32.115	WT901BLE68(B088180A53F4)	-0.002	0.024	1.013	0.244	0.122	0.183	-0.49	-0.28	59.88	-45.600	-86.508	-180.675	0.86649	0.01047	0.00482	0.49899	23.1	13113	100
2025-5-21 22:28:32.115	WT901BLE68(B088180A53F4)	-0.002	0.024	1.013	0.244	0.122	0.183	-0.49	-0.28	59.89	-45.600	-86.508	-180.675	0.86649	0.01047	0.00482	0.49899	23.1	13113	100
2025-5-21 22:28:32.115	WT901BLE68(B088180A53F4)	-0.004	0.024	1.013	0.244	0.122	0.183	-0.48	-0.28	59.89	-45.600	-86.508	-180.675	0.86649	0.01047	0.00482	0.49899	23.1	13113	100
2025-5-21 22:28:32.115	WT901BLE68(B088180A53F4)	-0.004	0.021	1.012	-0.854	-0.305	0.183	-0.49	-0.28	59.89	-45.600	-86.508	-180.675	0.86649	0.01047	0.00482	0.49899	23.1	13113	100
2025-5-21 22:28:32.115	WT901BLE68(B088180A53F4)	-0.004	0.021	1.012	-0.854	-0.305	0.183	-0.49	-0.29	59.89	-45.600	-86.508	-180.675	0.86649	0.01047	0.00482	0.49899	23.1	13113	100
2025-5-21 22:28:32.116	WT901BLE68(B088180A53F4)	-0.004	0.021	1.012	-0.854	-0.305	0.183	-0.49	-0.29	59.89	-45.600	-86.508	-180.675	0.86649	0.01047	0.00482	0.49899	23.1	13113	100
2025-5-21 22:28:32.126	WT901BLE68(4F145CEDD531)	0.054	0.020	0.990	10.010	3.052	-0.244	0.91	-3.41	-100.48	-58.342	-10.758	-22.675	-0.63950	0.01355	0.02802	0.76810	25.6	13113	90
2025-5-21 22:28:32.159	WT901BLE68(B088180A53F4)	-0.004	0.021	1.012	-0.854	-0.305	0.183	-0.50	-0.29	59.89	-45.600	-86.508	-180.675	0.86649	0.01047	0.00482	0.49899	23.1	13113	100
2025-5-21 22:28:32.159	WT901BLE68(B088180A53F4)	-0.004	0.020	1.014	-0.732	-0.305	0.061	-0.50	-0.29	59.89	-45.600	-86.508	-180.675	0.86649	0.01047	0.00482	0.49899	23.1	13113	100
2025-5-21 22:28:32.159	WT901BLE68(B088180A53F4)	-0.004	0.020	1.014	-0.732	-0.305	0.061	-0.51	-0.29	59.90	-45.600	-86.508	-180.675	0.86649	0.01047	0.00482	0.49899	23.1	13113	100
2025-5-21 22:28:32.159	WT901BLE68(B088180A53F4)	-0.004	0.020	1.014	-0.732	-0.305	0.061	-0.51	-0.29	59.90	-45.600	-86.508	-180.675	0.86649	0.01047	0.00482	0.49899	23.1	13113	100
2025-5-21 22:28:32.159	WT901BLE68(B088180A53F4)	0.000	0.020	1.014	-0.732	-0.305	0.061	-0.51	-0.29	59.90	-45.600	-86.508	-180.675	0.86649	0.01047	0.00482	0.49899	23.1	13113	100
2025-5-21 22:28:32.159	WT901BLE68(B088180A53F4)	0.000	0.017	1.013	-0.366	-0.244	0.000	-0.51	-0.29	59.90	-45.600	-86.508	-180.675	0.86649	0.01047	0.00482	0.49899	23.1	13113	100
2025-5-21 22:28:32.159	WT901BLE68(B088180A53F4)	0.000	0.017	1.013	-0.366	-0.244	0.000	-0.51	-0.29	59.90	-45.250	-86.508	-180.258	0.86649	0.01047	0.00482	0.49899	23.1	13113	100
2025-5-21 22:28:32.159	WT901BLE68(B088180A53F4)	0.007	0.017	1.013	-0.366	-0.244	0.000	-0.51	-0.29	59.90	-45.250	-86.508	-180.258	0.86649	0.01047	0.00482	0.49899	23.1	13113	100
2025-5-21 22:28:32.204	WT901BLE68(B088180A53F4)	0.007	0.015	1.012	-0.244	-0.183	0.000	-0.52	-0.29	59.90	-45.250	-86.508	-180.258	0.86649	0.01047	0.00482	0.49899	23.1	13113	100
2025-5-21 22:28:32.204	WT901BLE68(B088180A53F4)	0.007	0.015	1.012	-0.244	-0.183	0.000	-0.52	-0.29	59.90	-45.250	-86.508	-180.258	0.86649	0.01047	0.00482	0.49899	23.1	13113	100
2025-5-21 22:28:32.204	WT901BLE68(B088180A53F4)	0.007	0.015	1.012	-0.244	-0.183	0.000	-0.52	-0.29	59.90	-45.250	-86.508	-180.258	0.86649	0.01047	0.00482	0.49899	23.1	13113	100
2025-5-21 22:28:32.204	WT901BLE68(B088180A53F4)	0.009	0.015	1.012	-0.244	-0.183	0.000	-0.52	-0.29	59.90	-45.250	-86.508	-180.258	0.86649	0.01047	0.00482	0.49899	23.1	13113	100
2025-5-21 22:28:32.204	WT901BLE68(B088180A53F4)	0.009	0.016	1.014	0.061	-0.061	0.000	-0.52	-0.29	59.90	-45.250	-86.508	-180.258	0.86649	0.01047	0.00482	0.49899	23.1	13113	100
2025-5-21 22:28:32.204	WT901BLE68(B088180A53F4)	0.009	0.016	1.014	0.061	-0.061	0.000	-0.52	-0.30	59.90	-45.250	-86.508	-180.258	0.86649	0.01047	0.00482	0.49899	23.1	13113	100
2025-5-21 22:28:32.204	WT901BLE68(B088180A53F4)	0.009	0.016	1.014	0.061	-0.061	0.000	-0.52	-0.30	59.91	-45.250	-86.508	-180.258	0.86649	0.01047	0.00482	0.49899	23.1	13113	100
2025-5-21 22:28:32.204	WT901BLE68(B088180A53F4)	0.007	0.016	1.014	0.061	-0.061	0.000	-0.52	-0.30	59.91	-45.250	-86.508	-180.258	0.86649	0.01047	0.00482	0.49899	23.1	13113	100
2025-5-21 22:28:32.238	WT901BLE68(4F145CEDD531)	0.057	0.008	1.026	1.404	0.305	0.122	1.09	-3.32	-99.87	-58.758	-9.992	-23.017	-0.63950	0.01355	0.02802	0.76810	25.6	13113	90
2025-5-21 22:28:32.251	WT901BLE68(B088180A53F4)	0.007	0.018	1.012	0.183	0.061	0.000	-0.52	-0.30	59.91	-45.250	-86.508	-180.258	0.86649	0.01047	0.00482	0.49899	23.1	13113	100
2025-5-21 22:28:32.251	WT901BLE68(B088180A53F4)	0.007	0.018	1.012	0.183	0.061	0.000	-0.52	-0.29	59.91	-45.250	-86.508	-180.258	0.86649	0.01047	0.00482	0.49899	23.1	13113	100
2025-5-21 22:28:32.251	WT901BLE68(B088180A53F4)	0.007	0.018	1.012	0.183	0.061	0.000	-0.51	-0.29	59.91	-45.250	-86.508	-180.258	0.86649	0.01047	0.00482	0.49899	23.1	13113	100
2025-5-21 22:28:32.251	WT901BLE68(B088180A53F4)	0.005	0.018	1.012	0.183	0.061	0.000	-0.51	-0.29	59.91	-45.250	-86.508	-180.258	0.86649	0.01047	0.00482	0.49899	23.1	13113	100
2025-5-21 22:28:32.252	WT901BLE68(B088180A53F4)	0.005	0.018	1.013	2.319	0.854	0.000	-0.50	-0.29	59.91	-45.250	-86.508	-180.258	0.86649	0.01047	0.00482	0.49899	23.1	13113	100
2025-5-21 22:28:32.252	WT901BLE68(B088180A53F4)	0.005	0.018	1.013	2.319	0.854	0.000	-0.49	-0.29	59.91	-45.250	-86.508	-180.258	0.86649	0.01047	0.00482	0.49899	23.1	13113	100
2025-5-21 22:28:32.252	WT901BLE68(B088180A53F4)	0.005	0.018	1.013	2.319	0.854	0.000	-0.48	-0.28	59.91	-45.250	-86.508	-180.258	0.86649	0.01047	0.00482	0.49899	23.1	13113	100
2025-5-21 22:28:32.252	WT901BLE68(B088180A53F4)	0.000	0.018	1.013	2.319	0.854	0.000	-0.47	-0.27	59.91	-45.250	-86.508	-180.258	0.86649	0.01047	0.00482	0.49899	23.1	13113	100
2025-5-21 22:28:32.274	WT901BLE68(B088180A53F4)	0.000	0.021	1.013	-1.648	-0.488	0.000	-0.48	-0.28	59.91	-45.250	-86.508	-180.258	0.86649	0.01047	0.00482	0.49899	23.1	13113	100
2025-5-21 22:28:32.275	WT901BLE68(B088180A53F4)	0.000	0.021	1.013	-1.648	-0.488	0.000	-0.48	-0.28	59.91	-45.250	-86.508	-180.258	0.86649	0.01047	0.00482	0.49899	23.1	13113	100
2025-5-21 22:28:32.275	WT901BLE68(B088180A53F4)	0.000	0.021	1.013	-1.648	-0.488	0.000	-0.49	-0.29	59.91	-45.250	-86.508	-180.258	0.86649	0.01047	0.00482	0.49899	23.1	13113	100
2025-5-21 22:28:32.275	WT901BLE68(B088180A53F4)	-0.003	0.021	1.013	-1.648	-0.488	0.000	-0.51	-0.29	59.92	-45.250	-86.508	-180.258	0.86649	0.01047	0.00482	0.49899	23.1	13113	100
2025-5-21 22:28:32.275	WT901BLE68(B088180A53F4)	-0.003	0.030	1.015	0.305	0.122	-0.061	-0.50	-0.29	59.92	-45.250	-86.508	-180.258	0.86649	0.01047	0.00482	0.49899	23.1	13113	100
2025-5-21 22:28:32.275	WT901BLE68(B088180A53F4)	-0.003	0.030	1.015	0.305	0.122	-0.061	-0.50	-0.29	59.92	-45.250	-86.508	-180.258	0.86649	0.01047	0.00482	0.49899	23.1	13113	100
2025-5-21 22:28:32.276	WT901BLE68(B088180A53F4)	-0.003	0.030	1.015	0.305	0.122	-0.061	-0.50	-0.29	59.92	-45.250	-86.508	-180.258	0.86649	0.01047	0.00482	0.49899	23.1	13113	100
2025-5-21 22:28:32.276	WT901BLE68(B088180A53F4)	-0.007	0.030	1.015	0.305	0.122	-0.061	-0.50	-0.29	59.92	-45.250	-86.508	-180.258	0.86649	0.01047	0.00482	0.49899	23.1	13113	100
2025-5-21 22:28:32.318	WT901BLE68(B088180A53F4)	-0.007	0.042	1.017	2.014	0.671	0.000	-0.49	-0.28	59.92	-45.250	-86.508	-180.258	0.86649	0.01047	0.00482	0.49899	23.1	13113	100
2025-5-21 22:28:32.319	WT901BLE68(B088180A53F4)	-0.007	0.042	1.017	2.014	0.671	0.000	-0.48	-0.28	59.92	-45.250	-86.508	-180.258	0.86649	0.01047	0.00482	0.49899	23.1	13113	100
2025-5-21 22:28:32.319	WT901BLE68(B088180A53F4)	-0.007	0.042	1.017	2.014	0.671	0.000	-0.47	-0.27	59.92	-45.250	-86.508	-180.258	0.86649	0.01047	0.00482	0.49899	23.1	13113	100
2025-5-21 22:28:32.319	WT901BLE68(B088180A53F4)	-0.005	0.042	1.017	2.014	0.671	0.000	-0.46	-0.27	59.92	-45.250	-86.508	-180.258	0.86649	0.01047	0.00482	0.49899	23.1	13113	100
2025-5-21 22:28:32.319	WT901BLE68(B088180A53F4)	-0.005	0.038	1.015	-0.061	-0.061	0.000	-0.46	-0.27	59.92	-45.250	-86.508	-180.258	0.86649	0.01047	0.00482	0.49899	23.1	13113	100
2025-5-21 22:28:32.319	WT901BLE68(B088180A53F4)	-0.005	0.038	1.015	-0.061	-0.061	0.000	-0.46	-0.27	59.92	-45.250	-86.508	-180.258	0.86649	0.01047	0.00482	0.49899	23.1	13113	100
2025-5-21 22:28:32.319	WT901BLE68(B088180A53F4)	-0.005	0.038	1.015	-0.061	-0.061	0.000	-0.46	-0.27	59.92	-45.250	-86.508	-180.258	0.86649	0.01047	0.00482	0.49899	23.1	13113	100
2025-5-21 22:28:32.319	WT901BLE68(B088180A53F4)	-0.002	0.038	1.015	-0.061	-0.061	0.000	-0.46	-0.27	59.92	-45.250	-86.508	-180.258	0.86649	0.01047	0.00482	0.49899	23.1	13113	100
2025-5-21 22:28:32.330	WT901BLE68(4F145CEDD531)	0.052	-0.051	1.030	1.892	0.488	2.197	1.07	-3.33	-99.80	-58.758	-9.992	-23.017	-0.63950	0.01355	0.02802	0.76810	25.6	13113	90
2025-5-21 22:28:32.364	WT901BLE68(B088180A53F4)	-0.002	0.030	1.014	1.770	0.488	0.061	-0.44	-0.27	59.92	-45.250	-86.508	-180.258	0.86649	0.01047	0.00482	0.49899	23.1	13113	100
2025-5-21 22:28:32.364	WT901BLE68(B088180A53F4)	-0.002	0.030	1.014	1.770	0.488	0.061	-0.43	-0.26	59.93	-45.250	-86.508	-180.258	0.86649	0.01047	0.00482	0.49899	23.1	13113	100
2025-5-21 22:28:32.364	WT901BLE68(B088180A53F4)	-0.002	0.030	1.014	1.770	0.488	0.061	-0.43	-0.26	59.93	-45.250	-86.508	-180.258	0.86649	0.01047	0.00482	0.49899	23.1	13113	100
2025-5-21 22:28:32.364	WT901BLE68(B088180A53F4)	-0.001	0.030	1.014	1.770	0.488	0.061	-0.42	-0.26	59.93	-45.250	-86.508	-180.258	0.86649	0.01047	0.00482	0.49899	23.1	13113	100
2025-5-21 22:28:32.364	WT901BLE68(B088180A53F4)	-0.001	0.034	1.017	-3.052	-1.099	0.000	-0.43	-0.26	59.93	-45.250	-86.508	-180.258	0.86649	0.01047	0.00482	0.49899	23.1	13113	100
2025-5-21 22:28:32.364	WT901BLE68(B088180A53F4)	-0.001	0.034	1.017	-3.052	-1.099	0.000	-0.44	-0.27	59.93	-45.250	-86.508	-180.258	0.86649	0.01047	0.00482	0.49899	23.1	13113	100
2025-5-21 22:28:32.365	WT901BLE68(B088180A53F4)	-0.001	0.034	1.017	-3.052	-1.099	0.000	-0.46	-0.27	59.93	-45.250	-86.508	-180.258	0.86649	0.01047	0.00482	0.49899	23.1	13113	100
2025-5-21 22:28:32.365	WT901BLE68(B088180A53F4)	-0.001	0.034	1.017	-3.052	-1.099	0.000	-0.47	-0.28	59.93	-45.250	-86.508	-180.258	0.86649	0.01047	0.00482	0.49899	23.1	13113	100
2025-5-21 22:28:32.406	WT901BLE68(B088180A53F4)	-0.001	0.039	1.018	0.488	0.061	0.000	-0.47	-0.28	59.94	-45.250	-86.508	-180.258	0.86649	0.01047	0.00482	0.49899	23.1	13113	100
2025-5-21 22:28:32.406	WT901BLE68(B088180A53F4)	-0.001	0.039	1.018	0.488	0.061	0.000	-0.47	-0.27	59.94	-45.250	-86.508	-180.258	0.86649	0.01047	0.00482	0.49899	23.1	13113	100
2025-5-21 22:28:32.406	WT901BLE68(B088180A53F4)	-0.001	0.039	1.018	0.488	0.061	0.000	-0.46	-0.27	59.94	-45.250	-86.508	-180.258	0.86618	0.01077	0.00507	0.49948	23.1	13113	100
2025-5-21 22:28:32.406	WT901BLE68(B088180A53F4)	0.004	0.039	1.018	0.488	0.061	0.000	-0.46	-0.27	59.94	-45.250	-86.508	-180.258	0.86618	0.01077	0.00507	0.49948	23.1	13113	100
2025-5-21 22:28:32.406	WT901BLE68(B088180A53F4)	0.004	0.021	1.013	1.221	0.427	0.061	-0.46	-0.27	59.94	-45.250	-86.508	-180.258	0.86618	0.01077	0.00507	0.49948	23.1	13113	100
2025-5-21 22:28:32.407	WT901BLE68(B088180A53F4)	0.004	0.021	1.013	1.221	0.427	0.061	-0.44	-0.27	59.94	-45.250	-86.508	-180.258	0.86618	0.01077	0.00507	0.49948	23.1	13113	100
2025-5-21 22:28:32.407	WT901BLE68(B088180A53F4)	0.004	0.021	1.013	1.221	0.427	0.061	-0.44	-0.27	59.94	-45.250	-86.508	-180.258	0.86618	0.01077	0.00507	0.49948	23.1	13113	100
2025-5-21 22:28:32.407	WT901BLE68(B088180A53F4)	0.005	0.021	1.013	1.221	0.427	0.061	-0.43	-0.26	59.94	-45.250	-86.508	-180.258	0.86618	0.01077	0.00507	0.49948	23.1	13113	100
2025-5-21 22:28:32.441	WT901BLE68(4F145CEDD531)	0.060	0.072	1.033	-23.987	-4.333	33.813	0.75	-3.38	-96.59	-58.758	-9.992	-23.017	-0.66541	0.01642	0.02557	0.74579	25.6	13113	90
2025-5-21 22:28:32.453	WT901BLE68(B088180A53F4)	0.005	0.016	1.012	0.183	0.122	0.061	-0.43	-0.26	59.94	-45.250	-86.508	-180.258	0.86618	0.01077	0.00507	0.49948	23.1	13113	100
2025-5-21 22:28:32.454	WT901BLE68(B088180A53F4)	0.005	0.016	1.012	0.183	0.122	0.061	-0.43	-0.26	59.94	-45.250	-86.508	-180.258	0.86618	0.01077	0.00507	0.49948	23.1	13113	100
2025-5-21 22:28:32.454	WT901BLE68(B088180A53F4)	0.005	0.016	1.012	0.183	0.122	0.061	-0.43	-0.26	59.94	-45.250	-86.508	-180.258	0.86618	0.01077	0.00507	0.49948	23.1	13113	100
2025-5-21 22:28:32.454	WT901BLE68(B088180A53F4)	0.003	0.016	1.012	0.183	0.122	0.061	-0.43	-0.26	59.95	-45.250	-86.508	-180.258	0.86618	0.01077	0.00507	0.49948	23.1	13113	100
2025-5-21 22:28:32.454	WT901BLE68(B088180A53F4)	0.003	0.015	1.011	-0.183	-0.061	0.061	-0.43	-0.26	59.95	-45.250	-86.508	-180.258	0.86618	0.01077	0.00507	0.49948	23.1	13113	100
2025-5-21 22:28:32.454	WT901BLE68(B088180A53F4)	0.003	0.015	1.011	-0.183	-0.061	0.061	-0.43	-0.26	59.95	-45.250	-86.508	-180.258	0.86618	0.01077	0.00507	0.49948	23.1	13113	100
2025-5-21 22:28:32.454	WT901BLE68(B088180A53F4)	0.003	0.015	1.011	-0.183	-0.061	0.061	-0.43	-0.26	59.95	-45.250	-86.508	-180.258	0.86618	0.01077	0.00507	0.49948	23.1	13113	100
2025-5-21 22:28:32.454	WT901BLE68(B088180A53F4)	0.002	0.015	1.011	-0.183	-0.061	0.061	-0.43	-0.26	59.95	-45.250	-86.508	-180.258	0.86618	0.01077	0.00507	0.49948	23.1	13113	100
2025-5-21 22:28:32.474	WT901BLE68(B088180A53F4)	0.002	0.015	1.013	-0.061	0.000	0.000	-0.43	-0.26	59.95	-45.250	-86.508	-180.258	0.86618	0.01077	0.00507	0.49948	23.1	13113	100
2025-5-21 22:28:32.474	WT901BLE68(B088180A53F4)	0.002	0.015	1.013	-0.061	0.000	0.000	-0.43	-0.26	59.95	-45.250	-86.508	-180.258	0.86618	0.01077	0.00507	0.49948	23.1	13113	100
2025-5-21 22:28:32.474	WT901BLE68(B088180A53F4)	0.002	0.015	1.013	-0.061	0.000	0.000	-0.43	-0.26	59.95	-45.250	-86.508	-180.258	0.86618	0.01077	0.00507	0.49948	23.1	13113	100
2025-5-21 22:28:32.475	WT901BLE68(B088180A53F4)	0.000	0.015	1.013	-0.061	0.000	0.000	-0.43	-0.26	59.95	-45.250	-86.508	-180.258	0.86618	0.01077	0.00507	0.49948	23.1	13113	100
2025-5-21 22:28:32.475	WT901BLE68(B088180A53F4)	0.000	0.016	1.012	0.122	0.000	0.000	-0.43	-0.26	59.95	-45.250	-86.508	-180.258	0.86618	0.01077	0.00507	0.49948	23.1	13113	100
2025-5-21 22:28:32.475	WT901BLE68(B088180A53F4)	0.000	0.016	1.012	0.122	0.000	0.000	-0.43	-0.26	59.95	-45.250	-86.508	-180.258	0.86618	0.01077	0.00507	0.49948	23.1	13113	100
2025-5-21 22:28:32.475	WT901BLE68(B088180A53F4)	0.000	0.016	1.012	0.122	0.000	0.000	-0.43	-0.26	59.95	-45.250	-86.508	-180.258	0.86618	0.01077	0.00507	0.49948	23.1	13113	100
2025-5-21 22:28:32.475	WT901BLE68(B088180A53F4)	-0.000	0.016	1.012	0.122	0.000	0.000	-0.43	-0.26	59.95	-45.250	-86.508	-180.258	0.86618	0.01077	0.00507	0.49948	23.1	13113	100
2025-5-21 22:28:32.521	WT901BLE68(B088180A53F4)	-0.000	0.020	1.012	0.183	0.000	0.000	-0.43	-0.26	59.96	-45.250	-86.508	-180.258	0.86618	0.01077	0.00507	0.49948	23.1	13113	100
2025-5-21 22:28:32.521	WT901BLE68(B088180A53F4)	-0.000	0.020	1.012	0.183	0.000	0.000	-0.43	-0.26	59.96	-45.250	-86.508	-180.258	0.86618	0.01077	0.00507	0.49948	23.1	13113	100
2025-5-21 22:28:32.521	WT901BLE68(B088180A53F4)	-0.000	0.020	1.012	0.183	0.000	0.000	-0.43	-0.26	59.96	-45.250	-86.508	-180.258	0.86618	0.01077	0.00507	0.49948	23.1	13113	100
2025-5-21 22:28:32.521	WT901BLE68(B088180A53F4)	-0.000	0.020	1.012	0.183	0.000	0.000	-0.43	-0.26	59.96	-45.250	-86.508	-180.258	0.86618	0.01077	0.00507	0.49948	23.1	13113	100
2025-5-21 22:28:32.521	WT901BLE68(B088180A53F4)	-0.000	0.024	1.014	0.244	0.000	0.000	-0.43	-0.26	59.96	-45.250	-86.508	-180.258	0.86618	0.01077	0.00507	0.49948	23.1	13113	100
2025-5-21 22:28:32.521	WT901BLE68(B088180A53F4)	-0.000	0.024	1.014	0.244	0.000	0.000	-0.43	-0.26	59.96	-45.250	-86.508	-180.258	0.86618	0.01077	0.00507	0.49948	23.1	13113	100
2025-5-21 22:28:32.522	WT901BLE68(B088180A53F4)	-0.000	0.024	1.014	0.244	0.000	0.000	-0.43	-0.26	59.96	-45.250	-86.508	-180.258	0.86618	0.01077	0.00507	0.49948	23.1	13113	100
2025-5-21 22:28:32.522	WT901BLE68(B088180A53F4)	0.000	0.024	1.014	0.244	0.000	0.000	-0.43	-0.26	59.96	-45.250	-86.508	-180.258	0.86618	0.01077	0.00507	0.49948	23.1	13113	100
2025-5-21 22:28:32.533	WT901BLE68(4F145CEDD531)	0.060	0.023	1.033	0.244	0.061	0.061	0.77	-3.39	-96.58	-58.758	-9.992	-23.017	-0.66541	0.01642	0.02557	0.74579	25.6	13113	90
2025-5-21 22:28:32.567	WT901BLE68(B088180A53F4)	0.000	0.028	1.015	0.244	0.000	0.000	-0.43	-0.26	59.96	-45.250	-86.508	-180.258	0.86618	0.01077	0.00507	0.49948	23.1	13113	100
2025-5-21 22:28:32.568	WT901BLE68(B088180A53F4)	0.000	0.028	1.015	0.244	0.000	0.000	-0.42	-0.26	59.96	-45.250	-86.508	-180.258	0.86618	0.01077	0.00507	0.49948	23.1	13113	100
2025-5-21 22:28:32.568	WT901BLE68(B088180A53F4)	0.000	0.028	1.015	0.244	0.000	0.000	-0.42	-0.26	59.96	-45.250	-86.508	-180.258	0.86618	0.01077	0.00507	0.49948	23.1	13113	100
2025-5-21 22:28:32.568	WT901BLE68(B088180A53F4)	0.000	0.028	1.015	0.244	0.000	0.000	-0.42	-0.26	59.96	-45.250	-86.508	-180.258	0.86618	0.01077	0.00507	0.49948	23.1	13113	100
2025-5-21 22:28:32.568	WT901BLE68(B088180A53F4)	0.000	0.032	1.015	0.122	0.000	0.000	-0.42	-0.26	59.96	-45.250	-86.508	-180.258	0.86618	0.01077	0.00507	0.49948	23.1	13113	100
2025-5-21 22:28:32.568	WT901BLE68(B088180A53F4)	0.000	0.032	1.015	0.122	0.000	0.000	-0.42	-0.26	59.96	-45.250	-86.508	-180.258	0.86618	0.01077	0.00507	0.49948	23.1	13113	100
2025-5-21 22:28:32.569	WT901BLE68(B088180A53F4)	0.000	0.032	1.015	0.122	0.000	0.000	-0.42	-0.26	59.96	-45.250	-86.508	-180.258	0.86618	0.01077	0.00507	0.49948	23.1	13113	100
2025-5-21 22:28:32.569	WT901BLE68(B088180A53F4)	0.001	0.032	1.015	0.122	0.000	0.000	-0.42	-0.26	59.96	-45.250	-86.508	-180.258	0.86618	0.01077	0.00507	0.49948	23.1	13113	100
2025-5-21 22:28:32.608	WT901BLE68(B088180A53F4)	0.001	0.035	1.017	0.000	0.000	0.000	-0.42	-0.26	59.97	-45.250	-86.508	-180.258	0.86618	0.01077	0.00507	0.49948	23.1	13113	100
2025-5-21 22:28:32.609	WT901BLE68(B088180A53F4)	0.001	0.035	1.017	0.000	0.000	0.000	-0.42	-0.26	59.97	-45.250	-86.508	-180.258	0.86618	0.01077	0.00507	0.49948	23.1	13113	100
2025-5-21 22:28:32.609	WT901BLE68(B088180A53F4)	0.001	0.035	1.017	0.000	0.000	0.000	-0.42	-0.26	59.97	-45.250	-86.508	-180.258	0.86618	0.01077	0.00507	0.49948	23.1	13113	100
2025-5-21 22:28:32.609	WT901BLE68(B088180A53F4)	0.000	0.035	1.017	0.000	0.000	0.000	-0.42	-0.26	59.97	-45.233	-86.508	-180.017	0.86618	0.01077	0.00507	0.49948	23.1	13113	100
2025-5-21 22:28:32.609	WT901BLE68(B088180A53F4)	0.000	0.034	1.016	-0.122	0.000	0.000	-0.42	-0.26	59.97	-45.233	-86.508	-180.017	0.86618	0.01077	0.00507	0.49948	23.1	13113	100
2025-5-21 22:28:32.609	WT901BLE68(B088180A53F4)	0.000	0.034	1.016	-0.122	0.000	0.000	-0.42	-0.26	59.97	-45.233	-86.508	-180.017	0.86618	0.01077	0.00507	0.49948	23.1	13113	100
2025-5-21 22:28:32.609	WT901BLE68(B088180A53F4)	0.000	0.034	1.016	-0.122	0.000	0.000	-0.42	-0.26	59.97	-45.233	-86.508	-180.017	0.86618	0.01077	0.00507	0.49948	23.1	13113	100
2025-5-21 22:28:32.609	WT901BLE68(B088180A53F4)	-0.001	0.034	1.016	-0.122	0.000	0.000	-0.42	-0.26	59.97	-45.233	-86.508	-180.017	0.86618	0.01077	0.00507	0.49948	23.1	13113	100
2025-5-21 22:28:32.643	WT901BLE68(4F145CEDD531)	0.059	0.017	1.029	0.000	-0.061	0.000	0.81	-3.39	-96.65	-59.183	-8.425	-23.483	-0.66541	0.01642	0.02557	0.74579	25.6	13113	90
2025-5-21 22:28:32.656	WT901BLE68(B088180A53F4)	-0.001	0.033	1.015	-0.183	-0.061	0.000	-0.42	-0.26	59.97	-45.233	-86.508	-180.017	0.86618	0.01077	0.00507	0.49948	23.1	13113	100
2025-5-21 22:28:32.656	WT901BLE68(B088180A53F4)	-0.001	0.033	1.015	-0.183	-0.061	0.000	-0.42	-0.26	59.97	-45.233	-86.508	-180.017	0.86618	0.01077	0.00507	0.49948	23.1	13113	100
2025-5-21 22:28:32.656	WT901BLE68(B088180A53F4)	-0.001	0.033	1.015	-0.183	-0.061	0.000	-0.42	-0.26	59.97	-45.233	-86.508	-180.017	0.86618	0.01077	0.00507	0.49948	23.1	13113	100
2025-5-21 22:28:32.656	WT901BLE68(B088180A53F4)	-0.003	0.033	1.015	-0.183	-0.061	0.000	-0.42	-0.26	59.97	-45.233	-86.508	-180.017	0.86618	0.01077	0.00507	0.49948	23.1	13113	100
2025-5-21 22:28:32.656	WT901BLE68(B088180A53F4)	-0.003	0.029	1.015	-0.305	-0.061	0.000	-0.42	-0.26	59.97	-45.233	-86.508	-180.017	0.86618	0.01077	0.00507	0.49948	23.1	13113	100
2025-5-21 22:28:32.656	WT901BLE68(B088180A53F4)	-0.003	0.029	1.015	-0.305	-0.061	0.000	-0.42	-0.26	59.97	-45.233	-86.508	-180.017	0.86618	0.01077	0.00507	0.49948	23.1	13113	100
2025-5-21 22:28:32.656	WT901BLE68(B088180A53F4)	-0.002	0.029	1.015	-0.305	-0.061	0.000	-0.42	-0.26	59.97	-45.233	-86.508	-180.017	0.86618	0.01077	0.00507	0.49948	23.1	13113	100
2025-5-21 22:28:32.656	WT901BLE68(B088180A53F4)	-0.002	0.025	1.010	-0.732	-0.244	0.000	-0.43	-0.26	59.97	-45.233	-86.508	-180.017	0.86618	0.01077	0.00507	0.49948	23.1	13113	100
2025-5-21 22:28:32.678	WT901BLE68(B088180A53F4)	-0.002	0.025	1.010	-0.732	-0.244	0.000	-0.43	-0.26	59.97	-45.233	-86.508	-180.017	0.86618	0.01077	0.00507	0.49948	23.1	13113	100
2025-5-21 22:28:32.678	WT901BLE68(B088180A53F4)	-0.002	0.025	1.010	-0.732	-0.244	0.000	-0.43	-0.26	59.98	-45.233	-86.508	-180.017	0.86618	0.01077	0.00507	0.49948	23.1	13113	100
2025-5-21 22:28:32.678	WT901BLE68(B088180A53F4)	0.000	0.025	1.010	-0.732	-0.244	0.000	-0.44	-0.26	59.98	-45.233	-86.508	-180.017	0.86618	0.01077	0.00507	0.49948	23.1	13113	100
2025-5-21 22:28:32.678	WT901BLE68(B088180A53F4)	0.000	0.023	1.014	-0.427	0.000	0.610	-0.44	-0.26	59.98	-45.233	-86.508	-180.017	0.86618	0.01077	0.00507	0.49948	23.1	13113	100
2025-5-21 22:28:32.678	WT901BLE68(B088180A53F4)	0.000	0.023	1.014	-0.427	0.000	0.610	-0.44	-0.26	59.99	-45.233	-86.508	-180.017	0.86618	0.01077	0.00507	0.49948	23.1	13113	100
2025-5-21 22:28:32.678	WT901BLE68(B088180A53F4)	0.000	0.023	1.014	-0.427	0.000	0.610	-0.44	-0.26	59.99	-45.233	-86.508	-180.017	0.86618	0.01077	0.00507	0.49948	23.1	13113	100
2025-5-21 22:28:32.678	WT901BLE68(B088180A53F4)	-0.013	0.023	1.014	-0.427	0.000	0.610	-0.44	-0.26	59.99	-45.233	-86.508	-180.017	0.86618	0.01077	0.00507	0.49948	23.1	13113	100
2025-5-21 22:28:32.678	WT901BLE68(B088180A53F4)	-0.013	0.296	1.012	0.488	2.197	92.163	-0.44	-0.26	60.45	-45.233	-86.508	-180.017	0.86618	0.01077	0.00507	0.49948	23.1	13113	100
2025-5-21 22:28:32.721	WT901BLE68(B088180A53F4)	-0.013	0.296	1.012	0.488	2.197	92.163	-0.43	-0.26	60.91	-45.233	-86.508	-180.017	0.86618	0.01077	0.00507	0.49948	23.1	13113	100
2025-5-21 22:28:32.722	WT901BLE68(B088180A53F4)	-0.013	0.296	1.012	0.488	2.197	92.163	-0.42	-0.26	61.38	-45.233	-86.508	-180.017	0.86618	0.01077	0.00507	0.49948	23.1	13113	100
2025-5-21 22:28:32.722	WT901BLE68(B088180A53F4)	0.051	0.296	1.012	0.488	2.197	92.163	-0.41	-0.26	61.84	-45.233	-86.508	-180.017	0.86618	0.01077	0.00507	0.49948	23.1	13113	100
2025-5-21 22:28:32.722	WT901BLE68(B088180A53F4)	0.051	0.143	1.004	-0.977	4.517	233.093	-0.41	-0.26	63.01	-45.233	-86.508	-180.017	0.86618	0.01077	0.00507	0.49948	23.1	13113	100
2025-5-21 22:28:32.722	WT901BLE68(B088180A53F4)	0.051	0.143	1.004	-0.977	4.517	233.093	-0.41	-0.27	64.17	-45.233	-86.508	-180.017	0.86618	0.01077	0.00507	0.49948	23.1	13113	100
2025-5-21 22:28:32.722	WT901BLE68(B088180A53F4)	0.051	0.143	1.004	-0.977	4.517	233.093	-0.41	-0.28	65.34	-45.233	-86.508	-180.017	0.86618	0.01077	0.00507	0.49948	23.1	13113	100
2025-5-21 22:28:32.722	WT901BLE68(B088180A53F4)	-0.164	0.143	1.004	-0.977	4.517	233.093	-0.40	-0.29	66.51	-45.233	-86.508	-180.017	0.86618	0.01077	0.00507	0.49948	23.1	13113	100
2025-5-21 22:28:32.722	WT901BLE68(B088180A53F4)	-0.164	-0.482	1.026	-7.385	0.122	103.333	-0.43	-0.30	67.02	-45.233	-86.508	-180.017	0.86618	0.01077	0.00507	0.49948	23.1	13113	100
2025-5-21 22:28:32.733	WT901BLE68(4F145CEDD531)	0.209	0.022	1.031	-0.183	0.000	0.061	0.82	-3.39	-96.73	-59.183	-8.425	-23.483	-0.66541	0.01642	0.02557	0.74579	25.6	13113	90
2025-5-21 22:28:32.766	WT901BLE68(B088180A53F4)	-0.164	-0.482	1.026	-7.385	0.122	103.333	-0.47	-0.31	67.54	-45.233	-86.508	-180.017	0.86618	0.01077	0.00507	0.49948	23.1	13113	100
2025-5-21 22:28:32.766	WT901BLE68(B088180A53F4)	-0.164	-0.482	1.026	-7.385	0.122	103.333	-0.51	-0.31	68.05	-45.233	-86.508	-180.017	0.86618	0.01077	0.00507	0.49948	23.1	13113	100
2025-5-21 22:28:32.766	WT901BLE68(B088180A53F4)	0.014	-0.482	1.026	-7.385	0.122	103.333	-0.55	-0.32	68.57	-45.233	-86.508	-180.017	0.86618	0.01077	0.00507	0.49948	23.1	13113	100
2025-5-21 22:28:32.766	WT901BLE68(B088180A53F4)	0.014	-0.020	1.014	6.409	0.977	-16.907	-0.53	-0.31	68.49	-45.233	-86.508	-180.017	0.86618	0.01077	0.00507	0.49948	23.1	13113	100
2025-5-21 22:28:32.767	WT901BLE68(B088180A53F4)	0.014	-0.020	1.014	6.409	0.977	-16.907	-0.51	-0.30	68.41	-45.233	-86.508	-180.017	0.86618	0.01077	0.00507	0.49948	23.1	13113	100
2025-5-21 22:28:32.767	WT901BLE68(B088180A53F4)	0.014	-0.020	1.014	6.409	0.977	-16.907	-0.48	-0.29	68.32	-45.233	-86.508	-180.017	0.86618	0.01077	0.00507	0.49948	23.1	13113	100
2025-5-21 22:28:32.767	WT901BLE68(B088180A53F4)	0.002	-0.020	1.014	6.409	0.977	-16.907	-0.46	-0.28	68.24	-45.233	-86.508	-180.017	0.82776	0.01047	0.00586	0.56085	23.1	13113	100
2025-5-21 22:28:32.767	WT901BLE68(B088180A53F4)	0.002	-0.020	1.017	2.991	0.671	16.174	-0.44	-0.27	68.32	-45.233	-86.508	-180.017	0.82776	0.01047	0.00586	0.56085	23.1	13113	100
2025-5-21 22:28:32.811	WT901BLE68(B088180A53F4)	0.002	-0.020	1.017	2.991	0.671	16.174	-0.44	-0.27	68.40	-45.233	-86.508	-180.017	0.82776	0.01047	0.00586	0.56085	23.1	13113	100
2025-5-21 22:28:32.811	WT901BLE68(B088180A53F4)	0.002	-0.020	1.017	2.991	0.671	16.174	-0.43	-0.26	68.48	-45.233	-86.508	-180.017	0.82776	0.01047	0.00586	0.56085	23.1	13113	100
2025-5-21 22:28:32.811	WT901BLE68(B088180A53F4)	0.082	-0.020	1.017	2.991	0.671	16.174	-0.42	-0.26	68.57	-45.233	-86.508	-180.017	0.82776	0.01047	0.00586	0.56085	23.1	13113	100
2025-5-21 22:28:32.811	WT901BLE68(B088180A53F4)	0.082	0.039	1.013	-0.610	-1.038	-8.423	-0.43	-0.26	68.52	-45.233	-86.508	-180.017	0.82776	0.01047	0.00586	0.56085	23.1	13113	100
2025-5-21 22:28:32.811	WT901BLE68(B088180A53F4)	0.082	0.039	1.013	-0.610	-1.038	-8.423	-0.44	-0.27	68.48	-45.233	-86.508	-180.017	0.82776	0.01047	0.00586	0.56085	23.1	13113	100
2025-5-21 22:28:32.811	WT901BLE68(B088180A53F4)	0.082	0.039	1.013	-0.610	-1.038	-8.423	-0.45	-0.27	68.44	-45.233	-86.508	-180.017	0.82776	0.01047	0.00586	0.56085	23.1	13113	100
2025-5-21 22:28:32.811	WT901BLE68(B088180A53F4)	0.025	0.039	1.013	-0.610	-1.038	-8.423	-0.46	-0.27	68.40	-45.233	-86.508	-180.017	0.82776	0.01047	0.00586	0.56085	23.1	13113	100
2025-5-21 22:28:32.811	WT901BLE68(B088180A53F4)	0.025	0.028	1.031	8.484	-3.784	-28.320	-0.42	-0.29	68.26	-45.233	-86.508	-180.017	0.82776	0.01047	0.00586	0.56085	23.1	13113	100
2025-5-21 22:28:32.847	WT901BLE68(4F145CEDD531)	0.029	0.665	1.024	14.893	2.930	-82.947	1.29	-3.32	-99.44	-59.183	-8.425	-23.483	-0.62628	0.00488	0.03766	0.77863	25.6	13113	90
2025-5-21 22:28:32.857	WT901BLE68(B088180A53F4)	0.025	0.028	1.031	8.484	-3.784	-28.320	-0.38	-0.31	68.12	-45.233	-86.508	-180.017	0.82776	0.01047	0.00586	0.56085	23.1	13113	100
2025-5-21 22:28:32.858	WT901BLE68(B088180A53F4)	0.025	0.028	1.031	8.484	-3.784	-28.320	-0.35	-0.32	67.97	-45.233	-86.508	-180.017	0.82776	0.01047	0.00586	0.56085	23.1	13113	100
2025-5-21 22:28:32.858	WT901BLE68(B088180A53F4)	-0.025	0.028	1.031	8.484	-3.784	-28.320	-0.31	-0.34	67.83	-45.233	-86.508	-180.017	0.82776	0.01047	0.00586	0.56085	23.1	13113	100
2025-5-21 22:28:32.858	WT901BLE68(B088180A53F4)	-0.025	0.064	1.064	21.484	-19.287	-27.832	-0.20	-0.43	67.69	-45.233	-86.508	-180.017	0.82776	0.01047	0.00586	0.56085	23.1	13113	100
2025-5-21 22:28:32.858	WT901BLE68(B088180A53F4)	-0.025	0.064	1.064	21.484	-19.287	-27.832	-0.10	-0.52	67.55	-45.233	-86.508	-180.017	0.82776	0.01047	0.00586	0.56085	23.1	13113	100
2025-5-21 22:28:32.858	WT901BLE68(B088180A53F4)	-0.025	0.064	1.064	21.484	-19.287	-27.832	0.01	-0.62	67.41	-45.233	-86.508	-180.017	0.82776	0.01047	0.00586	0.56085	23.1	13113	100
2025-5-21 22:28:32.858	WT901BLE68(B088180A53F4)	0.031	0.064	1.064	21.484	-19.287	-27.832	0.11	-0.70	67.26	-45.233	-86.508	-180.017	0.82776	0.01047	0.00586	0.56085	23.1	13113	100
2025-5-21 22:28:32.858	WT901BLE68(B088180A53F4)	0.031	0.060	1.047	55.603	-20.020	-25.696	0.38	-0.80	67.13	-45.233	-86.508	-180.017	0.82776	0.01047	0.00586	0.56085	23.1	13113	100
2025-5-21 22:28:32.886	WT901BLE68(B088180A53F4)	0.031	0.060	1.047	55.603	-20.020	-25.696	0.66	-0.90	67.00	-45.233	-86.508	-180.017	0.82776	0.01047	0.00586	0.56085	23.1	13113	100
2025-5-21 22:28:32.886	WT901BLE68(B088180A53F4)	0.031	0.060	1.047	55.603	-20.020	-25.696	0.93	-0.98	66.87	-45.233	-86.508	-180.017	0.82776	0.01047	0.00586	0.56085	23.1	13113	100
2025-5-21 22:28:32.886	WT901BLE68(B088180A53F4)	0.069	0.060	1.047	55.603	-20.020	-25.696	1.21	-1.08	66.74	-45.233	-86.508	-180.017	0.82776	0.01047	0.00586	0.56085	23.1	13113	100
2025-5-21 22:28:32.886	WT901BLE68(B088180A53F4)	0.069	0.090	1.076	75.623	-20.630	-7.080	1.58	-1.18	66.70	-45.233	-86.508	-180.017	0.82776	0.01047	0.00586	0.56085	23.1	13113	100
2025-5-21 22:28:32.886	WT901BLE68(B088180A53F4)	0.069	0.090	1.076	75.623	-20.630	-7.080	1.95	-1.27	66.65	-45.233	-86.508	-180.017	0.82776	0.01047	0.00586	0.56085	23.1	13113	100
2025-5-21 22:28:32.886	WT901BLE68(B088180A53F4)	0.069	0.090	1.076	75.623	-20.630	-7.080	2.32	-1.38	66.62	-45.233	-86.508	-180.017	0.82776	0.01047	0.00586	0.56085	23.1	13113	100
2025-5-21 22:28:32.886	WT901BLE68(B088180A53F4)	0.054	0.090	1.076	75.623	-20.630	-7.080	2.70	-1.48	66.57	-45.233	-86.508	-180.017	0.82776	0.01047	0.00586	0.56085	23.1	13113	100
2025-5-21 22:28:32.886	WT901BLE68(B088180A53F4)	0.054	0.136	1.089	104.004	-19.409	2.197	3.21	-1.57	66.58	-45.233	-86.508	-180.017	0.82776	0.01047	0.00586	0.56085	23.1	13113	100
2025-5-21 22:28:32.923	WT901BLE68(B088180A53F4)	0.054	0.136	1.089	104.004	-19.409	2.197	3.72	-1.67	66.58	-45.233	-86.508	-180.017	0.82776	0.01047	0.00586	0.56085	23.1	13113	100
2025-5-21 22:28:32.923	WT901BLE68(B088180A53F4)	0.054	0.136	1.089	104.004	-19.409	2.197	4.22	-1.77	66.58	-45.233	-86.508	-180.017	0.82776	0.01047	0.00586	0.56085	23.1	13113	100
2025-5-21 22:28:32.923	WT901BLE68(B088180A53F4)	0.005	0.136	1.089	104.004	-19.409	2.197	4.74	-1.86	66.58	-45.233	-86.508	-180.017	0.82776	0.01047	0.00586	0.56085	23.1	13113	100
2025-5-21 22:28:32.923	WT901BLE68(B088180A53F4)	0.005	0.210	1.275	80.505	-0.305	-15.930	5.13	-1.85	66.50	-45.233	-86.508	-180.017	0.82776	0.01047	0.00586	0.56085	23.1	13113	100
2025-5-21 22:28:32.923	WT901BLE68(B088180A53F4)	0.005	0.210	1.275	80.505	-0.305	-15.930	5.52	-1.85	66.42	-45.233	-86.508	-180.017	0.82776	0.01047	0.00586	0.56085	23.1	13113	100
2025-5-21 22:28:32.924	WT901BLE68(B088180A53F4)	0.005	0.210	1.275	80.505	-0.305	-15.930	5.92	-1.83	66.35	-45.233	-86.508	-180.017	0.82776	0.01047	0.00586	0.56085	23.1	13113	100
2025-5-21 22:28:32.924	WT901BLE68(B088180A53F4)	0.051	0.210	1.275	80.505	-0.305	-15.930	6.31	-1.82	66.26	-45.233	-86.508	-180.017	0.82776	0.01047	0.00586	0.56085	23.1	13113	100
2025-5-21 22:28:32.924	WT901BLE68(B088180A53F4)	0.051	0.226	1.240	65.857	3.174	-44.556	6.63	-1.77	66.05	-45.233	-86.508	-180.017	0.82776	0.01047	0.00586	0.56085	23.1	13113	100
2025-5-21 22:28:32.937	WT901BLE68(4F145CEDD531)	0.023	0.058	1.045	-1.038	-2.258	-14.709	3.57	-3.27	-103.36	-59.183	-8.425	-23.483	-0.62628	0.00488	0.03766	0.77863	25.6	13113	90
2025-5-21 22:28:32.971	WT901BLE68(B088180A53F4)	0.051	0.226	1.240	65.857	3.174	-44.556	6.95	-1.72	65.83	-45.233	-86.508	-180.017	0.82776	0.01047	0.00586	0.56085	23.1	13113	100
2025-5-21 22:28:32.971	WT901BLE68(B088180A53F4)	0.051	0.226	1.240	65.857	3.174	-44.556	7.28	-1.68	65.62	-45.233	-86.508	-180.017	0.82776	0.01047	0.00586	0.56085	23.1	13113	100
2025-5-21 22:28:32.971	WT901BLE68(B088180A53F4)	0.081	0.226	1.240	65.857	3.174	-44.556	7.60	-1.62	65.40	-45.233	-86.508	-180.017	0.82776	0.01047	0.00586	0.56085	23.1	13113	100
2025-5-21 22:28:32.971	WT901BLE68(B088180A53F4)	0.081	0.178	1.111	67.200	27.954	-52.307	7.93	-1.44	65.17	-45.233	-86.508	-180.017	0.82776	0.01047	0.00586	0.56085	23.1	13113	100
2025-5-21 22:28:32.971	WT901BLE68(B088180A53F4)	0.081	0.178	1.111	67.200	27.954	-52.307	8.26	-1.26	64.93	-45.233	-86.508	-180.017	0.82776	0.01047	0.00586	0.56085	23.1	13113	100
2025-5-21 22:28:32.971	WT901BLE68(B088180A53F4)	0.081	0.178	1.111	67.200	27.954	-52.307	8.59	-1.08	64.70	-45.233	-86.508	-180.017	0.82776	0.01047	0.00586	0.56085	23.1	13113	100
2025-5-21 22:28:32.971	WT901BLE68(B088180A53F4)	0.007	0.178	1.111	67.200	27.954	-52.307	8.92	-0.90	64.47	-45.233	-86.508	-180.017	0.82776	0.01047	0.00586	0.56085	23.1	13113	100
2025-5-21 22:28:32.971	WT901BLE68(B088180A53F4)	0.007	0.111	1.058	55.481	32.043	-50.781	9.18	-0.69	64.25	-45.233	-86.508	-180.017	0.82776	0.01047	0.00586	0.56085	23.1	13113	100
2025-5-21 22:28:33.12	WT901BLE68(B088180A53F4)	0.007	0.111	1.058	55.481	32.043	-50.781	9.44	-0.49	64.03	-45.233	-86.508	-180.017	0.82776	0.01047	0.00586	0.56085	23.1	13113	100
2025-5-21 22:28:33.12	WT901BLE68(B088180A53F4)	0.007	0.111	1.058	55.481	32.043	-50.781	9.71	-0.29	63.81	-45.233	-86.508	-180.017	0.82776	0.01047	0.00586	0.56085	23.1	13113	100
2025-5-21 22:28:33.12	WT901BLE68(B088180A53F4)	-0.086	0.111	1.058	55.481	32.043	-50.781	9.96	-0.09	63.59	-45.233	-86.508	-180.017	0.82776	0.01047	0.00586	0.56085	23.1	13113	100
2025-5-21 22:28:33.12	WT901BLE68(B088180A53F4)	-0.086	0.122	1.154	76.538	21.057	-36.255	10.33	0.04	63.44	-46.392	-86.067	-177.433	0.82776	0.01047	0.00586	0.56085	23.1	13113	100
2025-5-21 22:28:33.12	WT901BLE68(B088180A53F4)	-0.086	0.122	1.154	76.538	21.057	-36.255	10.70	0.18	63.29	-46.392	-86.067	-177.433	0.82776	0.01047	0.00586	0.56085	23.1	13113	100
2025-5-21 22:28:33.12	WT901BLE68(B088180A53F4)	-0.086	0.122	1.154	76.538	21.057	-36.255	11.05	0.32	63.13	-46.392	-86.067	-177.433	0.82776	0.01047	0.00586	0.56085	23.1	13113	100
2025-5-21 22:28:33.12	WT901BLE68(B088180A53F4)	-0.086	0.122	1.154	76.538	21.057	-36.255	11.41	0.46	62.98	-46.392	-86.067	-177.433	0.82776	0.01047	0.00586	0.56085	23.1	13113	100
2025-5-21 22:28:33.12	WT901BLE68(B088180A53F4)	-0.086	0.177	1.179	86.304	42.236	-34.180	11.82	0.70	62.86	-46.392	-86.067	-177.433	0.82776	0.01047	0.00586	0.56085	23.1	13113	100
2025-5-21 22:28:33.47	WT901BLE68(4F145CEDD531)	0.185	0.218	1.244	90.576	-54.260	11.780	8.66	-4.08	-107.70	-58.958	-18.708	-17.800	-0.62628	0.00488	0.03766	0.77863	25.6	13113	90
2025-5-21 22:28:33.60	WT901BLE68(B088180A53F4)	-0.086	0.177	1.179	86.304	42.236	-34.180	12.23	0.94	62.75	-46.392	-86.067	-177.433	0.82776	0.01047	0.00586	0.56085	23.1	13113	100
2025-5-21 22:28:33.60	WT901BLE68(B088180A53F4)	-0.086	0.177	1.179	86.304	42.236	-34.180	12.63	1.19	62.63	-46.392	-86.067	-177.433	0.82776	0.01047	0.00586	0.56085	23.1	13113	100
2025-5-21 22:28:33.61	WT901BLE68(B088180A53F4)	-0.177	0.177	1.179	86.304	42.236	-34.180	13.04	1.43	62.52	-46.392	-86.067	-177.433	0.82776	0.01047	0.00586	0.56085	23.1	13113	100
2025-5-21 22:28:33.61	WT901BLE68(B088180A53F4)	-0.177	0.183	1.181	47.424	122.681	-44.800	13.25	2.08	62.46	-46.392	-86.067	-177.433	0.82776	0.01047	0.00586	0.56085	23.1	13113	100
2025-5-21 22:28:33.61	WT901BLE68(B088180A53F4)	-0.177	0.183	1.181	47.424	122.681	-44.800	13.46	2.72	62.41	-46.392	-86.067	-177.433	0.82776	0.01047	0.00586	0.56085	23.1	13113	100
2025-5-21 22:28:33.61	WT901BLE68(B088180A53F4)	-0.177	0.183	1.181	47.424	122.681	-44.800	13.67	3.37	62.35	-46.392	-86.067	-177.433	0.82776	0.01047	0.00586	0.56085	23.1	13113	100
2025-5-21 22:28:33.61	WT901BLE68(B088180A53F4)	-0.143	0.183	1.181	47.424	122.681	-44.800	13.87	4.02	62.30	-46.392	-86.067	-177.433	0.82776	0.01047	0.00586	0.56085	23.1	13113	100
2025-5-21 22:28:33.61	WT901BLE68(B088180A53F4)	-0.143	0.147	0.922	15.198	99.670	-35.095	13.92	4.53	62.26	-46.392	-86.067	-177.433	0.82776	0.01047	0.00586	0.56085	23.1	13113	100
2025-5-21 22:28:33.86	WT901BLE68(B088180A53F4)	-0.143	0.147	0.922	15.198	99.670	-35.095	13.97	5.05	62.23	-46.392	-86.067	-177.433	0.82776	0.01047	0.00586	0.56085	23.1	13113	100
2025-5-21 22:28:33.86	WT901BLE68(B088180A53F4)	-0.143	0.147	0.922	15.198	99.670	-35.095	14.01	5.57	62.19	-46.392	-86.067	-177.433	0.82776	0.01047	0.00586	0.56085	23.1	13113	100
2025-5-21 22:28:33.86	WT901BLE68(B088180A53F4)	-0.129	0.147	0.922	15.198	99.670	-35.095	14.06	6.09	62.16	-46.392	-86.067	-177.433	0.82776	0.01047	0.00586	0.56085	23.1	13113	100
2025-5-21 22:28:33.86	WT901BLE68(B088180A53F4)	-0.129	0.263	0.873	38.818	81.299	-6.104	14.24	6.48	62.23	-46.392	-86.067	-177.433	0.82776	0.01047	0.00586	0.56085	23.1	13113	100
2025-5-21 22:28:33.86	WT901BLE68(B088180A53F4)	-0.129	0.263	0.873	38.818	81.299	-6.104	14.42	6.87	62.31	-46.392	-86.067	-177.433	0.82776	0.01047	0.00586	0.56085	23.1	13113	100
2025-5-21 22:28:33.86	WT901BLE68(B088180A53F4)	-0.129	0.263	0.873	38.818	81.299	-6.104	14.60	7.26	62.40	-46.392	-86.067	-177.433	0.82776	0.01047	0.00586	0.56085	23.1	13113	100
2025-5-21 22:28:33.86	WT901BLE68(B088180A53F4)	-0.154	0.263	0.873	38.818	81.299	-6.104	14.78	7.64	62.48	-46.392	-86.067	-177.433	0.82776	0.01047	0.00586	0.56085	23.1	13113	100
2025-5-21 22:28:33.86	WT901BLE68(B088180A53F4)	-0.154	0.310	0.832	65.918	61.279	8.423	15.11	7.91	62.61	-46.392	-86.067	-177.433	0.82776	0.01047	0.00586	0.56085	23.1	13113	100
2025-5-21 22:28:33.129	WT901BLE68(B088180A53F4)	-0.154	0.310	0.832	65.918	61.279	8.423	15.43	8.18	62.74	-46.392	-86.067	-177.433	0.82776	0.01047	0.00586	0.56085	23.1	13113	100
2025-5-21 22:28:33.129	WT901BLE68(B088180A53F4)	-0.154	0.310	0.832	65.918	61.279	8.423	15.76	8.45	62.86	-46.392	-86.067	-177.433	0.82776	0.01047	0.00586	0.56085	23.1	13113	100
2025-5-21 22:28:33.129	WT901BLE68(B088180A53F4)	-0.266	0.310	0.832	65.918	61.279	8.423	16.08	8.71	63.00	-46.392	-86.067	-177.433	0.82776	0.01047	0.00586	0.56085	23.1	13113	100
2025-5-21 22:28:33.129	WT901BLE68(B088180A53F4)	-0.266	0.204	0.955	70.679	55.542	14.648	16.44	8.94	63.15	-46.392	-86.067	-177.433	0.82776	0.01047	0.00586	0.56085	23.1	13113	100
2025-5-21 22:28:33.129	WT901BLE68(B088180A53F4)	-0.266	0.204	0.955	70.679	55.542	14.648	16.80	9.17	63.30	-46.392	-86.067	-177.433	0.82776	0.01047	0.00586	0.56085	23.1	13113	100
2025-5-21 22:28:33.129	WT901BLE68(B088180A53F4)	-0.266	0.204	0.955	70.679	55.542	14.648	17.15	9.40	63.46	-46.392	-86.067	-177.433	0.82776	0.01047	0.00586	0.56085	23.1	13113	100
2025-5-21 22:28:33.129	WT901BLE68(B088180A53F4)	-0.337	0.204	0.955	70.679	55.542	14.648	17.51	9.64	63.62	-46.392	-86.067	-177.433	0.82776	0.01047	0.00586	0.56085	23.1	13113	100
2025-5-21 22:28:33.129	WT901BLE68(B088180A53F4)	-0.337	0.197	1.071	41.809	77.942	14.954	17.73	9.97	63.82	-46.392	-86.067	-177.433	0.82776	0.01047	0.00586	0.56085	23.1	13113	100
2025-5-21 22:28:33.139	WT901BLE68(4F145CEDD531)	0.203	0.145	0.798	127.808	50.476	-29.541	18.88	-10.97	-109.98	-58.958	-18.708	-17.800	-0.62628	0.00488	0.03766	0.77863	25.6	13113	90
2025-5-21 22:28:33.171	WT901BLE68(B088180A53F4)	-0.337	0.197	1.071	41.809	77.942	14.954	17.95	10.30	64.02	-46.392	-86.067	-177.433	0.82776	0.01047	0.00586	0.56085	23.1	13113	100
2025-5-21 22:28:33.171	WT901BLE68(B088180A53F4)	-0.326	0.197	1.071	41.809	77.942	14.954	18.17	10.63	64.22	-46.392	-86.067	-177.433	0.82776	0.01047	0.00586	0.56085	23.1	13113	100
2025-5-21 22:28:33.171	WT901BLE68(B088180A53F4)	-0.326	0.205	1.022	-9.705	108.459	2.808	18.13	11.13	64.42	-46.392	-86.067	-177.433	0.82776	0.01047	0.00586	0.56085	23.1	13113	100
2025-5-21 22:28:33.171	WT901BLE68(B088180A53F4)	-0.326	0.205	1.022	-9.705	108.459	2.808	18.09	11.63	64.62	-46.392	-86.067	-177.433	0.82776	0.01047	0.00586	0.56085	23.1	13113	100
2025-5-21 22:28:33.171	WT901BLE68(B088180A53F4)	-0.326	0.205	1.022	-9.705	108.459	2.808	18.06	12.13	64.81	-46.392	-86.067	-177.433	0.82776	0.01047	0.00586	0.56085	23.1	13113	100
2025-5-21 22:28:33.172	WT901BLE68(B088180A53F4)	-0.356	0.205	1.022	-9.705	108.459	2.808	18.03	12.63	65.01	-46.392	-86.067	-177.433	0.82776	0.01047	0.00586	0.56085	23.1	13113	100
2025-5-21 22:28:33.172	WT901BLE68(B088180A53F4)	-0.356	0.166	0.903	-51.025	126.526	-0.427	17.79	13.22	65.22	-46.392	-86.067	-177.433	0.82776	0.01047	0.00586	0.56085	23.1	13113	100
2025-5-21 22:28:33.172	WT901BLE68(B088180A53F4)	-0.356	0.166	0.903	-51.025	126.526	-0.427	17.56	13.80	65.43	-46.392	-86.067	-177.433	0.82776	0.01047	0.00586	0.56085	23.1	13113	100
2025-5-21 22:28:33.216	WT901BLE68(B088180A53F4)	-0.356	0.166	0.903	-51.025	126.526	-0.427	17.34	14.39	65.63	-46.392	-86.067	-177.433	0.82776	0.01047	0.00586	0.56085	23.1	13113	100
2025-5-21 22:28:33.216	WT901BLE68(B088180A53F4)	-0.399	0.166	0.903	-51.025	126.526	-0.427	17.11	14.98	65.84	-46.392	-86.067	-177.433	0.82776	0.01047	0.00586	0.56085	23.1	13113	100
2025-5-21 22:28:33.216	WT901BLE68(B088180A53F4)	-0.399	0.159	0.857	-62.134	134.583	18.860	16.86	15.58	66.15	-46.392	-86.067	-177.433	0.82776	0.01047	0.00586	0.56085	23.1	13113	100
2025-5-21 22:28:33.216	WT901BLE68(B088180A53F4)	-0.399	0.159	0.857	-62.134	134.583	18.860	16.62	16.18	66.46	-46.392	-86.067	-177.433	0.82971	0.05576	0.20428	0.51636	23.1	13113	100
2025-5-21 22:28:33.216	WT901BLE68(B088180A53F4)	-0.399	0.159	0.857	-62.134	134.583	18.860	16.37	16.78	66.76	-46.392	-86.067	-177.433	0.82971	0.05576	0.20428	0.51636	23.1	13113	100
2025-5-21 22:28:33.216	WT901BLE68(B088180A53F4)	-0.407	0.159	0.857	-62.134	134.583	18.860	16.13	17.38	67.07	-46.392	-86.067	-177.433	0.82971	0.05576	0.20428	0.51636	23.1	13113	100
2025-5-21 22:28:33.217	WT901BLE68(B088180A53F4)	-0.407	0.244	0.855	-54.199	137.878	30.762	15.95	17.98	67.44	-46.392	-86.067	-177.433	0.82971	0.05576	0.20428	0.51636	23.1	13113	100
2025-5-21 22:28:33.217	WT901BLE68(B088180A53F4)	-0.407	0.244	0.855	-54.199	137.878	30.762	15.78	18.58	67.81	-46.392	-86.067	-177.433	0.82971	0.05576	0.20428	0.51636	23.1	13113	100
2025-5-21 22:28:33.239	WT901BLE68(B088180A53F4)	-0.407	0.244	0.855	-54.199	137.878	30.762	15.62	19.18	68.17	-46.392	-86.067	-177.433	0.82971	0.05576	0.20428	0.51636	23.1	13113	100
2025-5-21 22:28:33.240	WT901BLE68(B088180A53F4)	-0.320	0.244	0.855	-54.199	137.878	30.762	15.45	19.78	68.54	-46.392	-86.067	-177.433	0.82971	0.05576	0.20428	0.51636	23.1	13113	100
2025-5-21 22:28:33.240	WT901BLE68(B088180A53F4)	-0.320	0.390	0.729	-38.696	128.601	32.593	15.37	20.33	68.90	-46.392	-86.067	-177.433	0.82971	0.05576	0.20428	0.51636	23.1	13113	100
2025-5-21 22:28:33.240	WT901BLE68(B088180A53F4)	-0.320	0.390	0.729	-38.696	128.601	32.593	15.30	20.89	69.26	-46.392	-86.067	-177.433	0.82971	0.05576	0.20428	0.51636	23.1	13113	100
2025-5-21 22:28:33.240	WT901BLE68(B088180A53F4)	-0.320	0.390	0.729	-38.696	128.601	32.593	15.23	21.44	69.62	-46.392	-86.067	-177.433	0.82971	0.05576	0.20428	0.51636	23.1	13113	100
2025-5-21 22:28:33.240	WT901BLE68(B088180A53F4)	-0.249	0.390	0.729	-38.696	128.601	32.593	15.17	21.99	69.98	-46.392	-86.067	-177.433	0.82971	0.05576	0.20428	0.51636	23.1	13113	100
2025-5-21 22:28:33.240	WT901BLE68(B088180A53F4)	-0.249	0.429	0.551	-39.185	98.633	21.423	15.06	22.41	70.24	-46.392	-86.067	-177.433	0.82971	0.05576	0.20428	0.51636	23.1	13113	100
2025-5-21 22:28:33.240	WT901BLE68(B088180A53F4)	-0.249	0.429	0.551	-39.185	98.633	21.423	14.97	22.84	70.49	-46.392	-86.067	-177.433	0.82971	0.05576	0.20428	0.51636	23.1	13113	100
2025-5-21 22:28:33.253	WT901BLE68(4F145CEDD531)	0.091	0.458	0.867	74.036	-12.085	-16.724	28.39	-9.50	-112.10	-58.958	-18.708	-17.800	-0.54941	-0.09332	0.26974	0.78522	25.6	13113	90
2025-5-21 22:28:33.296	WT901BLE68(B088180A53F4)	-0.249	0.429	0.551	-39.185	98.633	21.423	14.88	23.26	70.75	-46.392	-86.067	-177.433	0.82971	0.05576	0.20428	0.51636	23.1	13113	100
2025-5-21 22:28:33.296	WT901BLE68(B088180A53F4)	-0.321	0.429	0.551	-39.185	98.633	21.423	14.79	23.69	71.01	-46.392	-86.067	-177.433	0.82971	0.05576	0.20428	0.51636	23.1	13113	100
2025-5-21 22:28:33.296	WT901BLE68(B088180A53F4)	-0.321	0.295	0.603	-32.288	62.317	13.611	14.71	23.94	71.17	-46.392	-86.067	-177.433	0.82971	0.05576	0.20428	0.51636	23.1	13113	100
2025-5-21 22:28:33.296	WT901BLE68(B088180A53F4)	-0.321	0.295	0.603	-32.288	62.317	13.611	14.62	24.21	71.33	-46.392	-86.067	-177.433	0.82971	0.05576	0.20428	0.51636	23.1	13113	100
2025-5-21 22:28:33.296	WT901BLE68(B088180A53F4)	-0.321	0.295	0.603	-32.288	62.317	13.611	14.53	24.47	71.49	-46.392	-86.067	-177.433	0.82971	0.05576	0.20428	0.51636	23.1	13113	100
2025-5-21 22:28:33.297	WT901BLE68(B088180A53F4)	-0.381	0.295	0.603	-32.288	62.317	13.611	14.45	24.73	71.65	-46.392	-86.067	-177.433	0.82971	0.05576	0.20428	0.51636	23.1	13113	100
2025-5-21 22:28:33.297	WT901BLE68(B088180A53F4)	-0.381	0.314	0.742	6.348	45.593	37.964	14.60	24.88	71.92	-46.392	-86.067	-177.433	0.82971	0.05576	0.20428	0.51636	23.1	13113	100
2025-5-21 22:28:33.297	WT901BLE68(B088180A53F4)	-0.381	0.314	0.742	6.348	45.593	37.964	14.75	25.02	72.18	-46.392	-86.067	-177.433	0.82971	0.05576	0.20428	0.51636	23.1	13113	100
2025-5-21 22:28:33.332	WT901BLE68(B088180A53F4)	-0.381	0.314	0.742	6.348	45.593	37.964	14.91	25.17	72.44	-46.392	-86.067	-177.433	0.82971	0.05576	0.20428	0.51636	23.1	13113	100
2025-5-21 22:28:33.332	WT901BLE68(B088180A53F4)	-0.360	0.314	0.742	6.348	45.593	37.964	15.07	25.32	72.71	-46.392	-86.067	-177.433	0.82971	0.05576	0.20428	0.51636	23.1	13113	100
2025-5-21 22:28:33.332	WT901BLE68(B088180A53F4)	-0.360	0.413	0.797	23.010	39.246	40.833	15.31	25.43	72.98	-46.392	-86.067	-177.433	0.82971	0.05576	0.20428	0.51636	23.1	13113	100
2025-5-21 22:28:33.332	WT901BLE68(B088180A53F4)	-0.360	0.413	0.797	23.010	39.246	40.833	15.56	25.54	73.26	-46.392	-86.067	-177.433	0.82971	0.05576	0.20428	0.51636	23.1	13113	100
2025-5-21 22:28:33.332	WT901BLE68(B088180A53F4)	-0.360	0.413	0.797	23.010	39.246	40.833	15.81	25.65	73.53	-46.392	-86.067	-177.433	0.82971	0.05576	0.20428	0.51636	23.1	13113	100
2025-5-21 22:28:33.332	WT901BLE68(B088180A53F4)	-0.339	0.413	0.797	23.010	39.246	40.833	16.06	25.76	73.81	-46.392	-86.067	-177.433	0.82971	0.05576	0.20428	0.51636	23.1	13113	100
2025-5-21 22:28:33.333	WT901BLE68(B088180A53F4)	-0.339	0.468	0.851	39.246	37.415	39.612	16.38	25.86	74.07	-46.392	-86.067	-177.433	0.82971	0.05576	0.20428	0.51636	23.1	13113	100
2025-5-21 22:28:33.333	WT901BLE68(B088180A53F4)	-0.339	0.468	0.851	39.246	37.415	39.612	16.71	25.95	74.34	-46.392	-86.067	-177.433	0.82971	0.05576	0.20428	0.51636	23.1	13113	100
2025-5-21 22:28:33.342	WT901BLE68(4F145CEDD531)	-0.105	0.645	0.829	161.682	171.021	-42.114	38.64	-3.12	-110.98	-58.958	-18.708	-17.800	-0.54941	-0.09332	0.26974	0.78522	25.6	13113	90
2025-5-21 22:28:33.377	WT901BLE68(B088180A53F4)	-0.339	0.468	0.851	39.246	37.415	39.612	17.04	26.05	74.60	-46.392	-86.067	-177.433	0.82971	0.05576	0.20428	0.51636	23.1	13113	100
2025-5-21 22:28:33.377	WT901BLE68(B088180A53F4)	-0.306	0.468	0.851	39.246	37.415	39.612	17.37	26.14	74.87	-46.392	-86.067	-177.433	0.82971	0.05576	0.20428	0.51636	23.1	13113	100
2025-5-21 22:28:33.377	WT901BLE68(B088180A53F4)	-0.306	0.441	0.818	20.691	30.273	13.123	17.53	26.25	74.99	-46.392	-86.067	-177.433	0.82971	0.05576	0.20428	0.51636	23.1	13113	100
2025-5-21 22:28:33.378	WT901BLE68(B088180A53F4)	-0.306	0.441	0.818	20.691	30.273	13.123	17.71	26.35	75.11	-46.392	-86.067	-177.433	0.82971	0.05576	0.20428	0.51636	23.1	13113	100
2025-5-21 22:28:33.378	WT901BLE68(B088180A53F4)	-0.306	0.441	0.818	20.691	30.273	13.123	17.88	26.44	75.23	-46.392	-86.067	-177.433	0.82971	0.05576	0.20428	0.51636	23.1	13113	100
2025-5-21 22:28:33.378	WT901BLE68(B088180A53F4)	-0.320	0.441	0.818	20.691	30.273	13.123	18.05	26.54	75.34	-46.392	-86.067	-177.433	0.82971	0.05576	0.20428	0.51636	23.1	13113	100
2025-5-21 22:28:33.378	WT901BLE68(B088180A53F4)	-0.320	0.492	0.893	5.676	21.301	-9.460	18.09	26.64	75.33	-46.392	-86.067	-177.433	0.82971	0.05576	0.20428	0.51636	23.1	13113	100
2025-5-21 22:28:33.378	WT901BLE68(B088180A53F4)	-0.320	0.492	0.893	5.676	21.301	-9.460	18.13	26.74	75.31	-46.392	-86.067	-177.433	0.82971	0.05576	0.20428	0.51636	23.1	13113	100
2025-5-21 22:28:33.418	WT901BLE68(B088180A53F4)	-0.320	0.492	0.893	5.676	21.301	-9.460	18.16	26.83	75.29	-46.392	-86.067	-177.433	0.82971	0.05576	0.20428	0.51636	23.1	13113	100
2025-5-21 22:28:33.418	WT901BLE68(B088180A53F4)	-0.296	0.492	0.893	5.676	21.301	-9.460	18.20	26.92	75.28	-46.392	-86.067	-177.433	0.82971	0.05576	0.20428	0.51636	23.1	13113	100
2025-5-21 22:28:33.418	WT901BLE68(B088180A53F4)	-0.296	0.543	0.899	-4.883	12.695	-21.057	18.15	26.99	75.18	-46.392	-86.067	-177.433	0.82971	0.05576	0.20428	0.51636	23.1	13113	100
2025-5-21 22:28:33.418	WT901BLE68(B088180A53F4)	-0.296	0.543	0.899	-4.883	12.695	-21.057	18.11	27.06	75.09	-46.392	-86.067	-177.433	0.82971	0.05576	0.20428	0.51636	23.1	13113	100
2025-5-21 22:28:33.418	WT901BLE68(B088180A53F4)	-0.296	0.543	0.899	-4.883	12.695	-21.057	18.06	27.13	75.00	-11.517	-86.358	-203.650	0.82971	0.05576	0.20428	0.51636	23.1	13113	100
2025-5-21 22:28:33.418	WT901BLE68(B088180A53F4)	-0.424	0.543	0.899	-4.883	12.695	-21.057	18.01	27.20	74.90	-11.517	-86.358	-203.650	0.82971	0.05576	0.20428	0.51636	23.1	13113	100
2025-5-21 22:28:33.418	WT901BLE68(B088180A53F4)	-0.424	0.394	0.975	51.819	-12.451	-6.775	18.26	27.13	74.84	-11.517	-86.358	-203.650	0.82971	0.05576	0.20428	0.51636	23.1	13113	100
2025-5-21 22:28:33.419	WT901BLE68(B088180A53F4)	-0.424	0.394	0.975	51.819	-12.451	-6.775	18.51	27.05	74.77	-11.517	-86.358	-203.650	0.82971	0.05576	0.20428	0.51636	23.1	13113	100
2025-5-21 22:28:33.442	WT901BLE68(B088180A53F4)	-0.424	0.394	0.975	51.819	-12.451	-6.775	18.76	26.98	74.71	-11.517	-86.358	-203.650	0.82971	0.05576	0.20428	0.51636	23.1	13113	100
2025-5-21 22:28:33.442	WT901BLE68(B088180A53F4)	-0.408	0.394	0.975	51.819	-12.451	-6.775	19.00	26.92	74.64	-11.517	-86.358	-203.650	0.82971	0.05576	0.20428	0.51636	23.1	13113	100
2025-5-21 22:28:33.442	WT901BLE68(B088180A53F4)	-0.408	0.540	1.063	65.491	-25.330	-21.301	19.27	26.81	74.47	-11.517	-86.358	-203.650	0.82971	0.05576	0.20428	0.51636	23.1	13113	100
2025-5-21 22:28:33.442	WT901BLE68(B088180A53F4)	-0.408	0.540	1.063	65.491	-25.330	-21.301	19.53	26.71	74.30	-11.517	-86.358	-203.650	0.82971	0.05576	0.20428	0.51636	23.1	13113	100
2025-5-21 22:28:33.442	WT901BLE68(B088180A53F4)	-0.408	0.540	1.063	65.491	-25.330	-21.301	19.80	26.61	74.13	-11.517	-86.358	-203.650	0.82971	0.05576	0.20428	0.51636	23.1	13113	100
2025-5-21 22:28:33.442	WT901BLE68(B088180A53F4)	-0.367	0.540	1.063	65.491	-25.330	-21.301	20.07	26.50	73.96	-11.517	-86.358	-203.650	0.82971	0.05576	0.20428	0.51636	23.1	13113	100
2025-5-21 22:28:33.443	WT901BLE68(B088180A53F4)	-0.367	0.434	0.860	44.678	18.311	-30.029	20.25	26.63	73.83	-11.517	-86.358	-203.650	0.82971	0.05576	0.20428	0.51636	23.1	13113	100
2025-5-21 22:28:33.443	WT901BLE68(B088180A53F4)	-0.367	0.434	0.860	44.678	18.311	-30.029	20.43	26.74	73.71	-11.517	-86.358	-203.650	0.82971	0.05576	0.20428	0.51636	23.1	13113	100
2025-5-21 22:28:33.453	WT901BLE68(4F145CEDD531)	-0.023	0.834	0.538	48.523	9.644	20.691	48.36	-2.35	-108.28	-50.250	-42.767	0.108	-0.54941	-0.09332	0.26974	0.78522	25.6	13113	90
2025-5-21 22:28:33.494	WT901BLE68(B088180A53F4)	-0.367	0.434	0.860	44.678	18.311	-30.029	20.61	26.86	73.59	-11.517	-86.358	-203.650	0.82971	0.05576	0.20428	0.51636	23.1	13113	100
2025-5-21 22:28:33.495	WT901BLE68(B088180A53F4)	-0.381	0.434	0.860	44.678	18.311	-30.029	20.79	26.98	73.47	-11.517	-86.358	-203.650	0.82971	0.05576	0.20428	0.51636	23.1	13113	100
2025-5-21 22:28:33.495	WT901BLE68(B088180A53F4)	-0.381	0.295	0.600	63.416	27.649	2.625	21.15	27.08	73.53	-11.517	-86.358	-203.650	0.82971	0.05576	0.20428	0.51636	23.1	13113	100
2025-5-21 22:28:33.495	WT901BLE68(B088180A53F4)	-0.381	0.295	0.600	63.416	27.649	2.625	21.51	27.18	73.60	-11.517	-86.358	-203.650	0.82971	0.05576	0.20428	0.51636	23.1	13113	100
2025-5-21 22:28:33.495	WT901BLE68(B088180A53F4)	-0.381	0.295	0.600	63.416	27.649	2.625	21.87	27.28	73.67	-11.517	-86.358	-203.650	0.82971	0.05576	0.20428	0.51636	23.1	13113	100
2025-5-21 22:28:33.495	WT901BLE68(B088180A53F4)	-0.484	0.295	0.600	63.416	27.649	2.625	22.23	27.38	73.74	-11.517	-86.358	-203.650	0.82971	0.05576	0.20428	0.51636	23.1	13113	100
2025-5-21 22:28:33.495	WT901BLE68(B088180A53F4)	-0.484	0.269	0.776	86.670	-7.813	26.855	22.71	27.27	73.85	-11.517	-86.358	-203.650	0.82971	0.05576	0.20428	0.51636	23.1	13113	100
2025-5-21 22:28:33.495	WT901BLE68(B088180A53F4)	-0.484	0.269	0.776	86.670	-7.813	26.855	23.20	27.17	73.97	-11.517	-86.358	-203.650	0.82971	0.05576	0.20428	0.51636	23.1	13113	100
2025-5-21 22:28:33.534	WT901BLE68(B088180A53F4)	-0.484	0.269	0.776	86.670	-7.813	26.855	23.69	27.06	74.08	-11.517	-86.358	-203.650	0.82971	0.05576	0.20428	0.51636	23.1	13113	100
2025-5-21 22:28:33.534	WT901BLE68(B088180A53F4)	-0.491	0.269	0.776	86.670	-7.813	26.855	24.17	26.95	74.19	-11.517	-86.358	-203.650	0.82971	0.05576	0.20428	0.51636	23.1	13113	100
2025-5-21 22:28:33.534	WT901BLE68(B088180A53F4)	-0.491	0.338	0.818	52.490	-0.549	27.954	24.49	26.88	74.32	-11.517	-86.358	-203.650	0.82971	0.05576	0.20428	0.51636	23.1	13113	100
2025-5-21 22:28:33.535	WT901BLE68(B088180A53F4)	-0.491	0.338	0.818	52.490	-0.549	27.954	24.81	26.80	74.45	-11.517	-86.358	-203.650	0.82971	0.05576	0.20428	0.51636	23.1	13113	100
2025-5-21 22:28:33.535	WT901BLE68(B088180A53F4)	-0.491	0.338	0.818	52.490	-0.549	27.954	25.13	26.72	74.58	-11.517	-86.358	-203.650	0.82971	0.05576	0.20428	0.51636	23.1	13113	100
2025-5-21 22:28:33.535	WT901BLE68(B088180A53F4)	-0.441	0.338	0.818	52.490	-0.549	27.954	25.44	26.65	74.71	-11.517	-86.358	-203.650	0.82971	0.05576	0.20428	0.51636	23.1	13113	100
2025-5-21 22:28:33.535	WT901BLE68(B088180A53F4)	-0.441	0.401	0.714	20.081	6.042	21.851	25.59	26.62	74.83	-11.517	-86.358	-203.650	0.82971	0.05576	0.20428	0.51636	23.1	13113	100
2025-5-21 22:28:33.535	WT901BLE68(B088180A53F4)	-0.441	0.401	0.714	20.081	6.042	21.851	25.74	26.59	74.94	-11.517	-86.358	-203.650	0.82971	0.05576	0.20428	0.51636	23.1	13113	100
2025-5-21 22:28:33.545	WT901BLE68(4F145CEDD531)	0.035	0.866	0.569	-9.338	-102.600	-14.771	51.48	-3.47	-107.95	-50.250	-42.767	0.108	-0.54941	-0.09332	0.26974	0.78522	25.6	13113	90
2025-5-21 22:28:33.595	WT901BLE68(B088180A53F4)	-0.441	0.401	0.714	20.081	6.042	21.851	25.89	26.56	75.06	-11.517	-86.358	-203.650	0.82971	0.05576	0.20428	0.51636	23.1	13113	100
2025-5-21 22:28:33.595	WT901BLE68(B088180A53F4)	-0.454	0.401	0.714	20.081	6.042	21.851	26.04	26.53	75.17	-11.517	-86.358	-203.650	0.82971	0.05576	0.20428	0.51636	23.1	13113	100
2025-5-21 22:28:33.595	WT901BLE68(B088180A53F4)	-0.454	0.381	0.708	6.958	9.094	23.132	26.13	26.51	75.31	-11.517	-86.358	-203.650	0.82971	0.05576	0.20428	0.51636	23.1	13113	100
2025-5-21 22:28:33.596	WT901BLE68(B088180A53F4)	-0.454	0.381	0.708	6.958	9.094	23.132	26.21	26.49	75.44	-11.517	-86.358	-203.650	0.82971	0.05576	0.20428	0.51636	23.1	13113	100
2025-5-21 22:28:33.596	WT901BLE68(B088180A53F4)	-0.454	0.381	0.708	6.958	9.094	23.132	26.30	26.47	75.57	-11.517	-86.358	-203.650	0.82971	0.05576	0.20428	0.51636	23.1	13113	100
2025-5-21 22:28:33.596	WT901BLE68(B088180A53F4)	-0.449	0.381	0.708	6.958	9.094	23.132	26.39	26.46	75.70	-11.517	-86.358	-203.650	0.82971	0.05576	0.20428	0.51636	23.1	13113	100
2025-5-21 22:28:33.596	WT901BLE68(B088180A53F4)	-0.449	0.413	0.773	36.194	1.526	26.550	26.63	26.39	75.83	-11.517	-86.358	-203.650	0.82971	0.05576	0.20428	0.51636	23.1	13113	100
2025-5-21 22:28:33.596	WT901BLE68(B088180A53F4)	-0.449	0.413	0.773	36.194	1.526	26.550	26.86	26.34	75.95	-11.517	-86.358	-203.650	0.82971	0.05576	0.20428	0.51636	23.1	13113	100
2025-5-21 22:28:33.621	WT901BLE68(B088180A53F4)	-0.449	0.413	0.773	36.194	1.526	26.550	27.09	26.28	76.09	-11.517	-86.358	-203.650	0.82971	0.05576	0.20428	0.51636	23.1	13113	100
2025-5-21 22:28:33.621	WT901BLE68(B088180A53F4)	-0.427	0.413	0.773	36.194	1.526	26.550	27.32	26.22	76.21	-11.517	-86.358	-203.650	0.82971	0.05576	0.20428	0.51636	23.1	13113	100
2025-5-21 22:28:33.621	WT901BLE68(B088180A53F4)	-0.427	0.479	0.763	76.782	-12.756	31.311	27.75	26.09	76.32	-11.517	-86.358	-203.650	0.82971	0.05576	0.20428	0.51636	23.1	13113	100
2025-5-21 22:28:33.621	WT901BLE68(B088180A53F4)	-0.427	0.479	0.763	76.782	-12.756	31.311	28.17	25.95	76.43	-11.517	-86.358	-203.650	0.82971	0.05576	0.20428	0.51636	23.1	13113	100
2025-5-21 22:28:33.621	WT901BLE68(B088180A53F4)	-0.427	0.479	0.763	76.782	-12.756	31.311	28.60	25.82	76.54	-11.517	-86.358	-203.650	0.77469	0.06635	0.32864	0.53601	23.1	13113	100
2025-5-21 22:28:33.621	WT901BLE68(B088180A53F4)	-0.476	0.479	0.763	76.782	-12.756	31.311	29.02	25.68	76.65	-11.517	-86.358	-203.650	0.77469	0.06635	0.32864	0.53601	23.1	13113	100
2025-5-21 22:28:33.621	WT901BLE68(B088180A53F4)	-0.476	0.417	0.739	84.717	-14.404	38.696	29.49	25.52	76.78	-11.517	-86.358	-203.650	0.77469	0.06635	0.32864	0.53601	23.1	13113	100
2025-5-21 22:28:33.621	WT901BLE68(B088180A53F4)	-0.476	0.417	0.739	84.717	-14.404	38.696	29.97	25.36	76.92	-11.517	-86.358	-203.650	0.77469	0.06635	0.32864	0.53601	23.1	13113	100
2025-5-21 22:28:33.646	WT901BLE68(B088180A53F4)	-0.468	0.417	0.739	84.717	-14.404	38.696	30.44	25.20	77.05	-11.517	-86.358	-203.650	0.77469	0.06635	0.32864	0.53601	23.1	13113	100
2025-5-21 22:28:33.646	WT901BLE68(B088180A53F4)	-0.468	0.454	0.735	40.405	-8.972	26.978	30.67	25.09	77.14	-11.517	-86.358	-203.650	0.77469	0.06635	0.32864	0.53601	23.1	13113	100
2025-5-21 22:28:33.646	WT901BLE68(B088180A53F4)	-0.468	0.454	0.735	40.405	-8.972	26.978	30.90	24.99	77.23	-11.517	-86.358	-203.650	0.77469	0.06635	0.32864	0.53601	23.1	13113	100
2025-5-21 22:28:33.646	WT901BLE68(B088180A53F4)	-0.468	0.454	0.735	40.405	-8.972	26.978	31.12	24.88	77.33	-11.517	-86.358	-203.650	0.77469	0.06635	0.32864	0.53601	23.1	13113	100
2025-5-21 22:28:33.646	WT901BLE68(B088180A53F4)	-0.443	0.454	0.735	40.405	-8.972	26.978	31.35	24.77	77.42	-11.517	-86.358	-203.650	0.77469	0.06635	0.32864	0.53601	23.1	13113	100
2025-5-21 22:28:33.646	WT901BLE68(B088180A53F4)	-0.443	0.597	0.812	15.015	-9.460	21.362	31.45	24.68	77.48	-11.517	-86.358	-203.650	0.77469	0.06635	0.32864	0.53601	23.1	13113	100
2025-5-21 22:28:33.646	WT901BLE68(B088180A53F4)	-0.443	0.597	0.812	15.015	-9.460	21.362	31.54	24.59	77.55	-11.517	-86.358	-203.650	0.77469	0.06635	0.32864	0.53601	23.1	13113	100
2025-5-21 22:28:33.647	WT901BLE68(B088180A53F4)	-0.443	0.597	0.812	15.015	-9.460	21.362	31.63	24.49	77.61	-11.517	-86.358	-203.650	0.77469	0.06635	0.32864	0.53601	23.1	13113	100
2025-5-21 22:28:33.655	WT901BLE68(4F145CEDD531)	-0.079	0.626	0.962	-124.084	127.380	-16.052	36.31	-2.94	-112.47	-50.250	-42.767	0.108	-0.55661	-0.17770	0.19574	0.78754	25.6	13113	90
2025-5-21 22:28:33.696	WT901BLE68(B088180A53F4)	-0.406	0.597	0.812	15.015	-9.460	21.362	31.72	24.40	77.67	-11.517	-86.358	-203.650	0.77469	0.06635	0.32864	0.53601	23.1	13113	100
2025-5-21 22:28:33.697	WT901BLE68(B088180A53F4)	-0.406	0.610	0.806	7.813	1.343	2.441	31.76	24.41	77.68	-11.517	-86.358	-203.650	0.77469	0.06635	0.32864	0.53601	23.1	13113	100
2025-5-21 22:28:33.697	WT901BLE68(B088180A53F4)	-0.406	0.610	0.806	7.813	1.343	2.441	31.80	24.41	77.70	-11.517	-86.358	-203.650	0.77469	0.06635	0.32864	0.53601	23.1	13113	100
2025-5-21 22:28:33.697	WT901BLE68(B088180A53F4)	-0.406	0.610	0.806	7.813	1.343	2.441	31.84	24.41	77.70	-11.517	-86.358	-203.650	0.77469	0.06635	0.32864	0.53601	23.1	13113	100
2025-5-21 22:28:33.697	WT901BLE68(B088180A53F4)	-0.432	0.610	0.806	7.813	1.343	2.441	31.88	24.41	77.71	-11.517	-86.358	-203.650	0.77469	0.06635	0.32864	0.53601	23.1	13113	100
2025-5-21 22:28:33.697	WT901BLE68(B088180A53F4)	-0.432	0.483	0.701	10.437	-4.883	3.723	31.92	24.38	77.71	-11.517	-86.358	-203.650	0.77469	0.06635	0.32864	0.53601	23.1	13113	100
2025-5-21 22:28:33.697	WT901BLE68(B088180A53F4)	-0.432	0.483	0.701	10.437	-4.883	3.723	31.97	24.36	77.71	-11.517	-86.358	-203.650	0.77469	0.06635	0.32864	0.53601	23.1	13113	100
2025-5-21 22:28:33.697	WT901BLE68(B088180A53F4)	-0.432	0.483	0.701	10.437	-4.883	3.723	32.01	24.33	77.70	-11.517	-86.358	-203.650	0.77469	0.06635	0.32864	0.53601	23.1	13113	100
2025-5-21 22:28:33.736	WT901BLE68(B088180A53F4)	-0.475	0.483	0.701	10.437	-4.883	3.723	32.06	24.30	77.70	-11.517	-86.358	-203.650	0.77469	0.06635	0.32864	0.53601	23.1	13113	100
2025-5-21 22:28:33.737	WT901BLE68(B088180A53F4)	-0.475	0.448	0.730	29.419	-9.399	27.649	32.24	24.19	77.79	-11.517	-86.358	-203.650	0.77469	0.06635	0.32864	0.53601	23.1	13113	100
2025-5-21 22:28:33.737	WT901BLE68(B088180A53F4)	-0.475	0.448	0.730	29.419	-9.399	27.649	32.43	24.08	77.88	-11.517	-86.358	-203.650	0.77469	0.06635	0.32864	0.53601	23.1	13113	100
2025-5-21 22:28:33.737	WT901BLE68(B088180A53F4)	-0.475	0.448	0.730	29.419	-9.399	27.649	32.60	23.97	77.97	-11.517	-86.358	-203.650	0.77469	0.06635	0.32864	0.53601	23.1	13113	100
2025-5-21 22:28:33.737	WT901BLE68(B088180A53F4)	-0.466	0.448	0.730	29.419	-9.399	27.649	32.78	23.86	78.06	-11.517	-86.358	-203.650	0.77469	0.06635	0.32864	0.53601	23.1	13113	100
2025-5-21 22:28:33.737	WT901BLE68(B088180A53F4)	-0.466	0.520	0.794	30.396	20.325	32.776	33.01	23.85	78.27	-11.517	-86.358	-203.650	0.77469	0.06635	0.32864	0.53601	23.1	13113	100
2025-5-21 22:28:33.737	WT901BLE68(B088180A53F4)	-0.466	0.520	0.794	30.396	20.325	32.776	33.24	23.85	78.47	-11.517	-86.358	-203.650	0.77469	0.06635	0.32864	0.53601	23.1	13113	100
2025-5-21 22:28:33.737	WT901BLE68(B088180A53F4)	-0.466	0.520	0.794	30.396	20.325	32.776	33.47	23.85	78.67	-11.517	-86.358	-203.650	0.77469	0.06635	0.32864	0.53601	23.1	13113	100
2025-5-21 22:28:33.748	WT901BLE68(4F145CEDD531)	0.122	0.468	0.736	30.823	-25.513	11.658	26.40	6.71	-108.83	-50.250	-42.767	0.108	-0.55661	-0.17770	0.19574	0.78754	25.6	13113	90
2025-5-21 22:28:33.792	WT901BLE68(B088180A53F4)	-0.465	0.520	0.794	30.396	20.325	32.776	33.70	23.84	78.88	-11.517	-86.358	-203.650	0.77469	0.06635	0.32864	0.53601	23.1	13113	100
2025-5-21 22:28:33.792	WT901BLE68(B088180A53F4)	-0.465	0.512	0.721	24.963	46.082	32.349	33.93	23.94	79.17	-11.517	-86.358	-203.650	0.77469	0.06635	0.32864	0.53601	23.1	13113	100
2025-5-21 22:28:33.792	WT901BLE68(B088180A53F4)	-0.465	0.512	0.721	24.963	46.082	32.349	34.16	24.04	79.45	-11.517	-86.358	-203.650	0.77469	0.06635	0.32864	0.53601	23.1	13113	100
2025-5-21 22:28:33.793	WT901BLE68(B088180A53F4)	-0.465	0.512	0.721	24.963	46.082	32.349	34.40	24.13	79.74	-11.517	-86.358	-203.650	0.77469	0.06635	0.32864	0.53601	23.1	13113	100
2025-5-21 22:28:33.793	WT901BLE68(B088180A53F4)	-0.452	0.512	0.721	24.963	46.082	32.349	34.63	24.23	80.03	-11.517	-86.358	-203.650	0.77469	0.06635	0.32864	0.53601	23.1	13113	100
2025-5-21 22:28:33.793	WT901BLE68(B088180A53F4)	-0.452	0.485	0.640	29.846	81.421	33.691	34.94	24.46	80.44	-11.517	-86.358	-203.650	0.77469	0.06635	0.32864	0.53601	23.1	13113	100
2025-5-21 22:28:33.793	WT901BLE68(B088180A53F4)	-0.452	0.485	0.640	29.846	81.421	33.691	35.26	24.69	80.85	-11.517	-86.358	-203.650	0.77469	0.06635	0.32864	0.53601	23.1	13113	100
2025-5-21 22:28:33.793	WT901BLE68(B088180A53F4)	-0.452	0.485	0.640	29.846	81.421	33.691	35.57	24.92	81.27	-11.517	-86.358	-203.650	0.77469	0.06635	0.32864	0.53601	23.1	13113	100
2025-5-21 22:28:33.824	WT901BLE68(B088180A53F4)	-0.438	0.485	0.640	29.846	81.421	33.691	35.89	25.15	81.68	-11.517	-86.358	-203.650	0.77469	0.06635	0.32864	0.53601	23.1	13113	100
2025-5-21 22:28:33.824	WT901BLE68(B088180A53F4)	-0.438	0.466	0.523	37.415	99.121	44.128	36.29	25.41	82.21	-11.517	-86.358	-203.650	0.77469	0.06635	0.32864	0.53601	23.1	13113	100
2025-5-21 22:28:33.824	WT901BLE68(B088180A53F4)	-0.438	0.466	0.523	37.415	99.121	44.128	36.69	25.66	82.73	-11.517	-86.358	-203.650	0.77469	0.06635	0.32864	0.53601	23.1	13113	100
2025-5-21 22:28:33.825	WT901BLE68(B088180A53F4)	-0.438	0.466	0.523	37.415	99.121	44.128	37.10	25.92	83.27	-11.517	-86.358	-203.650	0.77469	0.06635	0.32864	0.53601	23.1	13113	100
2025-5-21 22:28:33.825	WT901BLE68(B088180A53F4)	-0.492	0.466	0.523	37.415	99.121	44.128	37.51	26.16	83.80	-9.725	-101.175	-197.275	0.77469	0.06635	0.32864	0.53601	23.1	13113	100
2025-5-21 22:28:33.825	WT901BLE68(B088180A53F4)	-0.492	0.501	0.540	30.212	10.925	68.909	37.80	25.99	84.13	-9.725	-101.175	-197.275	0.77469	0.06635	0.32864	0.53601	23.1	13113	100
2025-5-21 22:28:33.825	WT901BLE68(B088180A53F4)	-0.492	0.501	0.540	30.212	10.925	68.909	38.08	25.82	84.46	-9.725	-101.175	-197.275	0.77469	0.06635	0.32864	0.53601	23.1	13113	100
2025-5-21 22:28:33.825	WT901BLE68(B088180A53F4)	-0.492	0.501	0.540	30.212	10.925	68.909	38.36	25.65	84.78	-9.725	-101.175	-197.275	0.77469	0.06635	0.32864	0.53601	23.1	13113	100
2025-5-21 22:28:33.850	WT901BLE68(B088180A53F4)	-0.457	0.501	0.540	30.212	10.925	68.909	38.65	25.48	85.11	-9.725	-101.175	-197.275	0.77469	0.06635	0.32864	0.53601	23.1	13113	100
2025-5-21 22:28:33.850	WT901BLE68(B088180A53F4)	-0.457	0.551	0.641	12.817	-46.692	76.721	38.77	25.07	85.26	-9.725	-101.175	-197.275	0.77469	0.06635	0.32864	0.53601	23.1	13113	100
2025-5-21 22:28:33.850	WT901BLE68(B088180A53F4)	-0.457	0.551	0.641	12.817	-46.692	76.721	38.89	24.65	85.41	-9.725	-101.175	-197.275	0.77469	0.06635	0.32864	0.53601	23.1	13113	100
2025-5-21 22:28:33.850	WT901BLE68(B088180A53F4)	-0.457	0.551	0.641	12.817	-46.692	76.721	39.00	24.24	85.56	-9.725	-101.175	-197.275	0.77469	0.06635	0.32864	0.53601	23.1	13113	100
2025-5-21 22:28:33.850	WT901BLE68(B088180A53F4)	-0.381	0.551	0.641	12.817	-46.692	76.721	39.11	23.82	85.70	-9.725	-101.175	-197.275	0.77469	0.06635	0.32864	0.53601	23.1	13113	100
2025-5-21 22:28:33.850	WT901BLE68(B088180A53F4)	-0.381	0.749	0.742	-11.414	-44.434	53.955	39.07	23.49	85.76	-9.725	-101.175	-197.275	0.77469	0.06635	0.32864	0.53601	23.1	13113	100
2025-5-21 22:28:33.850	WT901BLE68(B088180A53F4)	-0.381	0.749	0.742	-11.414	-44.434	53.955	39.03	23.16	85.82	-9.725	-101.175	-197.275	0.77469	0.06635	0.32864	0.53601	23.1	13113	100
2025-5-21 22:28:33.850	WT901BLE68(B088180A53F4)	-0.381	0.749	0.742	-11.414	-44.434	53.955	39.00	22.83	85.88	-9.725	-101.175	-197.275	0.77469	0.06635	0.32864	0.53601	23.1	13113	100
2025-5-21 22:28:33.860	WT901BLE68(4F145CEDD531)	0.490	0.625	1.045	94.482	-164.307	89.050	33.37	-11.12	-111.91	-50.308	-35.317	-8.125	-0.55661	-0.17770	0.19574	0.78754	25.6	13113	90
2025-5-21 22:28:33.894	WT901BLE68(B088180A53F4)	-0.347	0.749	0.742	-11.414	-44.434	53.955	38.96	22.50	85.94	-9.725	-101.175	-197.275	0.77469	0.06635	0.32864	0.53601	23.1	13113	100
2025-5-21 22:28:33.895	WT901BLE68(B088180A53F4)	-0.347	0.788	0.907	-25.574	-19.592	17.029	38.83	22.38	85.94	-9.725	-101.175	-197.275	0.77469	0.06635	0.32864	0.53601	23.1	13113	100
2025-5-21 22:28:33.895	WT901BLE68(B088180A53F4)	-0.347	0.788	0.907	-25.574	-19.592	17.029	38.69	22.26	85.94	-9.725	-101.175	-197.275	0.77469	0.06635	0.32864	0.53601	23.1	13113	100
2025-5-21 22:28:33.895	WT901BLE68(B088180A53F4)	-0.347	0.788	0.907	-25.574	-19.592	17.029	38.56	22.14	85.93	-9.725	-101.175	-197.275	0.77469	0.06635	0.32864	0.53601	23.1	13113	100
2025-5-21 22:28:33.895	WT901BLE68(B088180A53F4)	-0.323	0.788	0.907	-25.574	-19.592	17.029	38.43	22.02	85.93	-9.725	-101.175	-197.275	0.77469	0.06635	0.32864	0.53601	23.1	13113	100
2025-5-21 22:28:33.895	WT901BLE68(B088180A53F4)	-0.323	0.838	1.012	-24.353	7.996	-4.150	38.31	22.07	85.94	-9.725	-101.175	-197.275	0.77469	0.06635	0.32864	0.53601	23.1	13113	100
2025-5-21 22:28:33.895	WT901BLE68(B088180A53F4)	-0.323	0.838	1.012	-24.353	7.996	-4.150	38.19	22.12	85.94	-9.725	-101.175	-197.275	0.77469	0.06635	0.32864	0.53601	23.1	13113	100
2025-5-21 22:28:33.895	WT901BLE68(B088180A53F4)	-0.323	0.838	1.012	-24.353	7.996	-4.150	38.07	22.16	85.95	-9.725	-101.175	-197.275	0.77469	0.06635	0.32864	0.53601	23.1	13113	100
2025-5-21 22:28:33.938	WT901BLE68(B088180A53F4)	-0.223	0.838	1.012	-24.353	7.996	-4.150	37.95	22.20	85.95	-9.725	-101.175	-197.275	0.77469	0.06635	0.32864	0.53601	23.1	13113	100
2025-5-21 22:28:33.938	WT901BLE68(B088180A53F4)	-0.223	0.830	0.937	-12.085	18.677	-10.681	37.90	22.30	85.97	-9.725	-101.175	-197.275	0.77469	0.06635	0.32864	0.53601	23.1	13113	100
2025-5-21 22:28:33.938	WT901BLE68(B088180A53F4)	-0.223	0.830	0.937	-12.085	18.677	-10.681	37.85	22.40	85.98	-9.725	-101.175	-197.275	0.77469	0.06635	0.32864	0.53601	23.1	13113	100
2025-5-21 22:28:33.938	WT901BLE68(B088180A53F4)	-0.223	0.830	0.937	-12.085	18.677	-10.681	37.79	22.50	86.00	-9.725	-101.175	-197.275	0.77469	0.06635	0.32864	0.53601	23.1	13113	100
2025-5-21 22:28:33.939	WT901BLE68(B088180A53F4)	-0.227	0.830	0.937	-12.085	18.677	-10.681	37.74	22.60	86.01	-9.725	-101.175	-197.275	0.77469	0.06635	0.32864	0.53601	23.1	13113	100
2025-5-21 22:28:33.939	WT901BLE68(B088180A53F4)	-0.227	0.807	0.958	33.264	8.057	14.221	37.94	22.57	86.09	-9.725	-101.175	-197.275	0.77469	0.06635	0.32864	0.53601	23.1	13113	100
2025-5-21 22:28:33.939	WT901BLE68(B088180A53F4)	-0.227	0.807	0.958	33.264	8.057	14.221	38.14	22.54	86.18	-9.725	-101.175	-197.275	0.77469	0.06635	0.32864	0.53601	23.1	13113	100
2025-5-21 22:28:33.939	WT901BLE68(B088180A53F4)	-0.227	0.807	0.958	33.264	8.057	14.221	38.34	22.52	86.26	-9.725	-101.175	-197.275	0.77469	0.06635	0.32864	0.53601	23.1	13113	100
2025-5-21 22:28:33.950	WT901BLE68(4F145CEDD531)	0.429	0.497	0.697	72.021	-32.837	55.359	38.11	-19.98	-111.42	-50.308	-35.317	-8.125	-0.55661	-0.17770	0.19574	0.78754	25.6	13113	90
2025-5-21 22:28:33.996	WT901BLE68(B088180A53F4)	-0.211	0.807	0.958	33.264	8.057	14.221	38.54	22.48	86.35	-9.725	-101.175	-197.275	0.77469	0.06635	0.32864	0.53601	23.1	13113	100
2025-5-21 22:28:33.996	WT901BLE68(B088180A53F4)	-0.211	0.913	0.977	57.983	-7.690	3.723	38.83	22.43	86.33	-9.725	-101.175	-197.275	0.77469	0.06635	0.32864	0.53601	23.1	13113	100
2025-5-21 22:28:33.996	WT901BLE68(B088180A53F4)	-0.211	0.913	0.977	57.983	-7.690	3.723	39.11	22.37	86.31	-9.725	-101.175	-197.275	0.77469	0.06635	0.32864	0.53601	23.1	13113	100
2025-5-21 22:28:33.996	WT901BLE68(B088180A53F4)	-0.211	0.913	0.977	57.983	-7.690	3.723	39.39	22.31	86.30	-9.725	-101.175	-197.275	0.77469	0.06635	0.32864	0.53601	23.1	13113	100
2025-5-21 22:28:33.996	WT901BLE68(B088180A53F4)	-0.263	0.913	0.977	57.983	-7.690	3.723	39.67	22.25	86.28	-9.725	-101.175	-197.275	0.77469	0.06635	0.32864	0.53601	23.1	13113	100
2025-5-21 22:28:33.996	WT901BLE68(B088180A53F4)	-0.526	0.868	1.080	61.279	-18.188	-13.489	39.93	22.20	86.15	-9.725	-101.175	-197.275	0.77469	0.06635	0.32864	0.53601	23.1	13113	100
2025-5-21 22:28:33.996	WT901BLE68(B088180A53F4)	-1.052	1.736	2.159	61.279	-18.188	-13.489	40.18	22.16	86.03	-9.725	-101.175	-197.275	0.77469	0.06635	0.32864	0.53601	23.1	13113	100
2025-5-21 22:28:33.996	WT901BLE68(B088180A53F4)	-2.104	3.472	4.318	61.279	-18.188	-13.489	40.44	22.12	85.90	-9.725	-101.175	-197.275	0.77469	0.06635	0.32864	0.53601	23.1	13113	100
2025-5-21 22:28:34.4	WT901BLE68(B088180A53F4)	-0.401	6.944	8.637	61.279	-18.188	-13.489	40.69	22.07	85.78	-9.725	-101.175	-197.275	0.71753	0.13834	0.37375	0.57114	23.1	13113	100
2025-5-21 22:28:34.4	WT901BLE68(B088180A53F4)	-0.401	0.753	1.297	65.918	-19.775	-41.931	40.92	22.10	85.53	-9.725	-101.175	-197.275	0.71753	0.13834	0.37375	0.57114	23.1	13113	100
2025-5-21 22:28:34.4	WT901BLE68(B088180A53F4)	-0.401	0.753	1.297	65.918	-19.775	-41.931	41.14	22.15	85.29	-9.725	-101.175	-197.275	0.71753	0.13834	0.37375	0.57114	23.1	13113	100
2025-5-21 22:28:34.5	WT901BLE68(B088180A53F4)	-0.401	0.753	1.297	65.918	-19.775	-41.931	41.37	22.19	85.05	-9.725	-101.175	-197.275	0.71753	0.13834	0.37375	0.57114	23.1	13113	100
2025-5-21 22:28:34.5	WT901BLE68(B088180A53F4)	-0.617	0.753	1.297	65.918	-19.775	-41.931	41.59	22.24	84.80	-9.725	-101.175	-197.275	0.71753	0.13834	0.37375	0.57114	23.1	13113	100
2025-5-21 22:28:34.5	WT901BLE68(B088180A53F4)	-0.617	0.729	1.343	51.697	40.955	-46.143	41.82	22.52	84.77	-9.725	-101.175	-197.275	0.71753	0.13834	0.37375	0.57114	23.1	13113	100
2025-5-21 22:28:34.5	WT901BLE68(B088180A53F4)	-0.617	0.729	1.343	51.697	40.955	-46.143	42.05	22.80	84.74	-9.725	-101.175	-197.275	0.71753	0.13834	0.37375	0.57114	23.1	13113	100
2025-5-21 22:28:34.5	WT901BLE68(B088180A53F4)	-0.617	0.729	1.343	51.697	40.955	-46.143	42.28	23.08	84.70	-9.725	-101.175	-197.275	0.71753	0.13834	0.37375	0.57114	23.1	13113	100
2025-5-21 22:28:34.48	WT901BLE68(B088180A53F4)	-0.564	0.729	1.343	51.697	40.955	-46.143	42.50	23.37	84.67	-9.725	-101.175	-197.275	0.71753	0.13834	0.37375	0.57114	23.1	13113	100
2025-5-21 22:28:34.48	WT901BLE68(B088180A53F4)	-0.564	0.817	1.158	41.687	69.580	0.000	42.79	23.59	84.94	-9.725	-101.175	-197.275	0.71753	0.13834	0.37375	0.57114	23.1	13113	100
2025-5-21 22:28:34.49	WT901BLE68(B088180A53F4)	-0.564	0.817	1.158	41.687	69.580	0.000	43.08	23.81	85.19	-9.725	-101.175	-197.275	0.71753	0.13834	0.37375	0.57114	23.1	13113	100
2025-5-21 22:28:34.49	WT901BLE68(B088180A53F4)	-0.564	0.817	1.158	41.687	69.580	0.000	43.37	24.03	85.46	-9.725	-101.175	-197.275	0.71753	0.13834	0.37375	0.57114	23.1	13113	100
2025-5-21 22:28:34.49	WT901BLE68(B088180A53F4)	-0.617	0.817	1.158	41.687	69.580	0.000	43.67	24.25	85.72	-9.725	-101.175	-197.275	0.71753	0.13834	0.37375	0.57114	23.1	13113	100
2025-5-21 22:28:34.49	WT901BLE68(B088180A53F4)	-0.617	0.784	1.031	56.885	70.557	27.466	44.08	24.37	86.09	-9.725	-101.175	-197.275	0.71753	0.13834	0.37375	0.57114	23.1	13113	100
2025-5-21 22:28:34.49	WT901BLE68(B088180A53F4)	-0.617	0.784	1.031	56.885	70.557	27.466	44.49	24.50	86.47	-9.725	-101.175	-197.275	0.71753	0.13834	0.37375	0.57114	23.1	13113	100
2025-5-21 22:28:34.49	WT901BLE68(B088180A53F4)	-0.617	0.784	1.031	56.885	70.557	27.466	44.91	24.62	86.85	-9.725	-101.175	-197.275	0.71753	0.13834	0.37375	0.57114	23.1	13113	100
2025-5-21 22:28:34.63	WT901BLE68(4F145CEDD531)	-0.067	0.493	0.865	397.339	10.681	-70.190	52.15	-24.74	-113.63	-50.308	-35.317	-8.125	-0.51382	-0.19153	0.55206	0.62802	25.6	13113	90
2025-5-21 22:28:34.92	WT901BLE68(B088180A53F4)	-0.678	0.784	1.031	56.885	70.557	27.466	45.32	24.74	87.23	-9.725	-101.175	-197.275	0.71753	0.13834	0.37375	0.57114	23.1	13113	100
2025-5-21 22:28:34.93	WT901BLE68(B088180A53F4)	-0.678	0.811	0.974	60.608	57.922	40.222	45.75	24.76	87.61	-9.725	-101.175	-197.275	0.71753	0.13834	0.37375	0.57114	23.1	13113	100
2025-5-21 22:28:34.93	WT901BLE68(B088180A53F4)	-0.678	0.811	0.974	60.608	57.922	40.222	46.18	24.79	87.98	-9.725	-101.175	-197.275	0.71753	0.13834	0.37375	0.57114	23.1	13113	100
2025-5-21 22:28:34.93	WT901BLE68(B088180A53F4)	-0.678	0.811	0.974	60.608	57.922	40.222	46.61	24.81	88.36	-9.725	-101.175	-197.275	0.71753	0.13834	0.37375	0.57114	23.1	13113	100
2025-5-21 22:28:34.93	WT901BLE68(B088180A53F4)	-0.716	0.811	0.974	60.608	57.922	40.222	47.04	24.84	88.74	-9.725	-101.175	-197.275	0.71753	0.13834	0.37375	0.57114	23.1	13113	100
2025-5-21 22:28:34.93	WT901BLE68(B088180A53F4)	-0.716	0.795	0.919	67.017	64.636	54.504	47.54	24.83	89.20	-9.725	-101.175	-197.275	0.71753	0.13834	0.37375	0.57114	23.1	13113	100
2025-5-21 22:28:34.93	WT901BLE68(B088180A53F4)	-0.716	0.795	0.919	67.017	64.636	54.504	48.03	24.82	89.66	-9.725	-101.175	-197.275	0.71753	0.13834	0.37375	0.57114	23.1	13113	100
2025-5-21 22:28:34.93	WT901BLE68(B088180A53F4)	-0.716	0.795	0.919	67.017	64.636	54.504	48.52	24.80	90.12	-9.725	-101.175	-197.275	0.71753	0.13834	0.37375	0.57114	23.1	13113	100
2025-5-21 22:28:34.140	WT901BLE68(B088180A53F4)	-0.728	0.795	0.919	67.017	64.636	54.504	49.02	24.79	90.58	-9.725	-101.175	-197.275	0.71753	0.13834	0.37375	0.57114	23.1	13113	100
2025-5-21 22:28:34.141	WT901BLE68(B088180A53F4)	-0.728	0.712	0.844	53.101	60.242	48.218	49.42	24.78	90.99	-9.725	-101.175	-197.275	0.71753	0.13834	0.37375	0.57114	23.1	13113	100
2025-5-21 22:28:34.141	WT901BLE68(B088180A53F4)	-0.728	0.712	0.844	53.101	60.242	48.218	49.82	24.77	91.41	-9.725	-101.175	-197.275	0.71753	0.13834	0.37375	0.57114	23.1	13113	100
2025-5-21 22:28:34.141	WT901BLE68(B088180A53F4)	-0.750	0.712	0.844	53.101	60.242	48.218	50.22	24.76	91.83	-9.725	-101.175	-197.275	0.71753	0.13834	0.37375	0.57114	23.1	13113	100
2025-5-21 22:28:34.141	WT901BLE68(B088180A53F4)	-0.750	0.493	0.752	37.109	56.824	56.885	50.55	24.70	92.26	-9.725	-101.175	-197.275	0.71753	0.13834	0.37375	0.57114	23.1	13113	100
2025-5-21 22:28:34.142	WT901BLE68(B088180A53F4)	-0.750	0.493	0.752	37.109	56.824	56.885	50.87	24.65	92.70	-9.725	-101.175	-197.275	0.71753	0.13834	0.37375	0.57114	23.1	13113	100
2025-5-21 22:28:34.142	WT901BLE68(B088180A53F4)	-0.750	0.493	0.752	37.109	56.824	56.885	51.20	24.59	93.13	-9.725	-101.175	-197.275	0.71753	0.13834	0.37375	0.57114	23.1	13113	100
2025-5-21 22:28:34.142	WT901BLE68(B088180A53F4)	-0.713	0.493	0.752	37.109	56.824	56.885	51.51	24.54	93.57	-9.725	-101.175	-197.275	0.71753	0.13834	0.37375	0.57114	23.1	13113	100
2025-5-21 22:28:34.152	WT901BLE68(4F145CEDD531)	-0.283	0.611	0.303	-18.982	-83.923	-66.101	73.67	-15.90	-119.58	-50.308	-35.317	-8.125	-0.51382	-0.19153	0.55206	0.62802	25.6	13113	90
2025-5-21 22:28:34.194	WT901BLE68(B088180A53F4)	-0.713	0.412	0.574	75.684	90.027	109.924	52.16	24.36	94.31	-9.725	-101.175	-197.275	0.71753	0.13834	0.37375	0.57114	23.1	13113	100
2025-5-21 22:28:34.194	WT901BLE68(B088180A53F4)	-0.713	0.412	0.574	75.684	90.027	109.924	52.80	24.19	95.06	-9.725	-101.175	-197.275	0.71753	0.13834	0.37375	0.57114	23.1	13113	100
2025-5-21 22:28:34.194	WT901BLE68(B088180A53F4)	-0.713	0.412	0.574	75.684	90.027	109.924	53.43	24.01	95.81	-9.725	-101.175	-197.275	0.71753	0.13834	0.37375	0.57114	23.1	13113	100
2025-5-21 22:28:34.194	WT901BLE68(B088180A53F4)	-0.101	0.412	0.574	75.684	90.027	109.924	54.06	23.82	96.55	-9.725	-101.175	-197.275	0.71753	0.13834	0.37375	0.57114	23.1	13113	100
2025-5-21 22:28:34.195	WT901BLE68(B088180A53F4)	-0.101	0.801	0.199	29.175	97.290	28.503	54.37	23.98	97.08	-9.725	-101.175	-197.275	0.71753	0.13834	0.37375	0.57114	23.1	13113	100
2025-5-21 22:28:34.195	WT901BLE68(B088180A53F4)	-0.101	0.801	0.199	29.175	97.290	28.503	54.68	24.14	97.60	-9.725	-101.175	-197.275	0.71753	0.13834	0.37375	0.57114	23.1	13113	100
2025-5-21 22:28:34.195	WT901BLE68(B088180A53F4)	-0.101	0.801	0.199	29.175	97.290	28.503	55.00	24.29	98.13	-9.725	-101.175	-197.275	0.71753	0.13834	0.37375	0.57114	23.1	13113	100
2025-5-21 22:28:34.195	WT901BLE68(B088180A53F4)	-1.034	0.801	0.199	29.175	97.290	28.503	55.32	24.44	98.66	-9.725	-101.175	-197.275	0.71753	0.13834	0.37375	0.57114	23.1	13113	100
2025-5-21 22:28:34.207	WT901BLE68(B088180A53F4)	-1.034	0.013	0.368	-68.420	67.566	-12.817	55.05	24.69	98.93	-14.392	-118.458	-179.683	0.71753	0.13834	0.37375	0.57114	23.1	13113	100
2025-5-21 22:28:34.208	WT901BLE68(B088180A53F4)	-1.034	0.013	0.368	-68.420	67.566	-12.817	54.78	24.94	99.20	-14.392	-118.458	-179.683	0.71753	0.13834	0.37375	0.57114	23.1	13113	100
2025-5-21 22:28:34.208	WT901BLE68(B088180A53F4)	-1.034	0.013	0.368	-68.420	67.566	-12.817	54.50	25.20	99.46	-14.392	-118.458	-179.683	0.71753	0.13834	0.37375	0.57114	23.1	13113	100
2025-5-21 22:28:34.208	WT901BLE68(B088180A53F4)	-0.452	0.013	0.368	-68.420	67.566	-12.817	54.23	25.47	99.73	-14.392	-118.458	-179.683	0.71753	0.13834	0.37375	0.57114	23.1	13113	100
2025-5-21 22:28:34.208	WT901BLE68(B088180A53F4)	-0.452	0.479	0.310	30.273	112.488	108.093	54.70	25.35	100.59	-14.392	-118.458	-179.683	0.71753	0.13834	0.37375	0.57114	23.1	13113	100
2025-5-21 22:28:34.208	WT901BLE68(B088180A53F4)	-0.452	0.479	0.310	30.273	112.488	108.093	55.17	25.24	101.43	-14.392	-118.458	-179.683	0.71753	0.13834	0.37375	0.57114	23.1	13113	100
2025-5-21 22:28:34.208	WT901BLE68(B088180A53F4)	-0.452	0.479	0.310	30.273	112.488	108.093	55.64	25.11	102.28	-14.392	-118.458	-179.683	0.71753	0.13834	0.37375	0.57114	23.1	13113	100
2025-5-21 22:28:34.208	WT901BLE68(B088180A53F4)	-0.437	0.479	0.310	30.273	112.488	108.093	56.10	24.98	103.12	-14.392	-118.458	-179.683	0.71753	0.13834	0.37375	0.57114	23.1	13113	100
2025-5-21 22:28:34.254	WT901BLE68(B088180A53F4)	-0.437	0.485	0.254	-51.270	116.089	78.186	56.13	24.98	103.89	-14.392	-118.458	-179.683	0.71753	0.13834	0.37375	0.57114	23.1	13113	100
2025-5-21 22:28:34.254	WT901BLE68(B088180A53F4)	-0.437	0.485	0.254	-51.270	116.089	78.186	56.16	24.99	104.66	-14.392	-118.458	-179.683	0.71753	0.13834	0.37375	0.57114	23.1	13113	100
2025-5-21 22:28:34.254	WT901BLE68(B088180A53F4)	-0.437	0.485	0.254	-51.270	116.089	78.186	56.19	24.99	105.43	-14.392	-118.458	-179.683	0.71753	0.13834	0.37375	0.57114	23.1	13113	100
2025-5-21 22:28:34.254	WT901BLE68(B088180A53F4)	-0.307	0.485	0.254	-51.270	116.089	78.186	56.22	25.00	106.20	-14.392	-118.458	-179.683	0.71753	0.13834	0.37375	0.57114	23.1	13113	100
2025-5-21 22:28:34.254	WT901BLE68(B088180A53F4)	-0.307	0.490	0.095	-67.932	127.930	84.778	56.21	25.00	107.05	-14.392	-118.458	-179.683	0.71753	0.13834	0.37375	0.57114	23.1	13113	100
2025-5-21 22:28:34.255	WT901BLE68(B088180A53F4)	-0.307	0.490	0.095	-67.932	127.930	84.778	56.19	25.02	107.90	-14.392	-118.458	-179.683	0.71753	0.13834	0.37375	0.57114	23.1	13113	100
2025-5-21 22:28:34.255	WT901BLE68(B088180A53F4)	-0.307	0.490	0.095	-67.932	127.930	84.778	56.18	25.02	108.74	-14.392	-118.458	-179.683	0.71753	0.13834	0.37375	0.57114	23.1	13113	100
2025-5-21 22:28:34.255	WT901BLE68(B088180A53F4)	-0.152	0.490	0.095	-67.932	127.930	84.778	56.17	25.03	109.59	-14.392	-118.458	-179.683	0.71753	0.13834	0.37375	0.57114	23.1	13113	100
2025-5-21 22:28:34.264	WT901BLE68(4F145CEDD531)	0.003	0.763	-0.120	-71.899	10.010	-191.895	82.16	-2.49	-126.46	-41.650	-58.450	33.708	-0.51382	-0.19153	0.55206	0.62802	25.6	13113	90
2025-5-21 22:28:34.300	WT901BLE68(B088180A53F4)	-0.152	0.181	-0.401	-8.911	-41.687	160.767	56.22	24.27	109.86	-14.392	-118.458	-179.683	0.71753	0.13834	0.37375	0.57114	23.1	13113	100
2025-5-21 22:28:34.300	WT901BLE68(B088180A53F4)	-0.152	0.181	-0.401	-8.911	-41.687	160.767	56.27	23.52	110.13	-14.392	-118.458	-179.683	0.71753	0.13834	0.37375	0.57114	23.1	13113	100
2025-5-21 22:28:34.300	WT901BLE68(B088180A53F4)	-0.152	0.181	-0.401	-8.911	-41.687	160.767	56.32	22.77	110.40	-14.392	-118.458	-179.683	0.71753	0.13834	0.37375	0.57114	23.1	13113	100
2025-5-21 22:28:34.300	WT901BLE68(B088180A53F4)	-0.176	0.181	-0.401	-8.911	-41.687	160.767	56.37	22.02	110.67	-14.392	-118.458	-179.683	0.71753	0.13834	0.37375	0.57114	23.1	13113	100
2025-5-21 22:28:34.300	WT901BLE68(B088180A53F4)	-0.176	0.618	-0.089	85.083	-57.800	188.110	56.89	21.12	110.93	-14.392	-118.458	-179.683	0.71753	0.13834	0.37375	0.57114	23.1	13113	100
2025-5-21 22:28:34.300	WT901BLE68(B088180A53F4)	-0.176	0.618	-0.089	85.083	-57.800	188.110	57.41	20.21	111.18	-14.392	-118.458	-179.683	0.71753	0.13834	0.37375	0.57114	23.1	13113	100
2025-5-21 22:28:34.300	WT901BLE68(B088180A53F4)	-0.176	0.618	-0.089	85.083	-57.800	188.110	57.93	19.30	111.42	-14.392	-118.458	-179.683	0.71753	0.13834	0.37375	0.57114	23.1	13113	100
2025-5-21 22:28:34.300	WT901BLE68(B088180A53F4)	-0.089	0.618	-0.089	85.083	-57.800	188.110	58.44	18.39	111.65	-14.392	-118.458	-179.683	0.71753	0.13834	0.37375	0.57114	23.1	13113	100
2025-5-21 22:28:34.342	WT901BLE68(B088180A53F4)	-0.089	0.703	-0.113	84.717	-134.460	174.194	58.83	17.35	111.48	-14.392	-118.458	-179.683	0.71753	0.13834	0.37375	0.57114	23.1	13113	100
2025-5-21 22:28:34.343	WT901BLE68(B088180A53F4)	-0.089	0.703	-0.113	84.717	-134.460	174.194	59.22	16.31	111.30	-14.392	-118.458	-179.683	0.71753	0.13834	0.37375	0.57114	23.1	13113	100
2025-5-21 22:28:34.343	WT901BLE68(B088180A53F4)	-0.089	0.703	-0.113	84.717	-134.460	174.194	59.62	15.27	111.12	-14.392	-118.458	-179.683	0.71753	0.13834	0.37375	0.57114	23.1	13113	100
2025-5-21 22:28:34.343	WT901BLE68(B088180A53F4)	-0.064	0.703	-0.113	84.717	-134.460	174.194	60.02	14.24	110.92	-14.392	-118.458	-179.683	0.71753	0.13834	0.37375	0.57114	23.1	13113	100
2025-5-21 22:28:34.343	WT901BLE68(B088180A53F4)	-0.064	0.740	-0.133	124.390	-155.151	167.297	60.60	13.18	110.61	-14.392	-118.458	-179.683	0.71753	0.13834	0.37375	0.57114	23.1	13113	100
2025-5-21 22:28:34.343	WT901BLE68(B088180A53F4)	-0.064	0.740	-0.133	124.390	-155.151	167.297	61.19	12.13	110.29	-14.392	-118.458	-179.683	0.71753	0.13834	0.37375	0.57114	23.1	13113	100
2025-5-21 22:28:34.343	WT901BLE68(B088180A53F4)	-0.064	0.740	-0.133	124.390	-155.151	167.297	61.78	11.08	109.95	-14.392	-118.458	-179.683	0.71753	0.13834	0.37375	0.57114	23.1	13113	100
2025-5-21 22:28:34.343	WT901BLE68(B088180A53F4)	-0.047	0.740	-0.133	124.390	-155.151	167.297	62.38	10.04	109.61	-14.392	-118.458	-179.683	0.71753	0.13834	0.37375	0.57114	23.1	13113	100
2025-5-21 22:28:34.353	WT901BLE68(4F145CEDD531)	0.137	0.584	0.327	-39.734	112.610	-24.658	73.29	8.97	-120.97	-41.650	-58.450	33.708	-0.51382	-0.19153	0.55206	0.62802	25.6	13113	90
2025-5-21 22:28:34.391	WT901BLE68(B088180A53F4)	-0.047	0.721	-0.040	124.512	-144.531	151.611	62.99	9.09	109.26	-14.392	-118.458	-179.683	0.71753	0.13834	0.37375	0.57114	23.1	13113	100
2025-5-21 22:28:34.391	WT901BLE68(B088180A53F4)	-0.047	0.721	-0.040	124.512	-144.531	151.611	63.61	8.14	108.90	-14.392	-118.458	-179.683	0.71753	0.13834	0.37375	0.57114	23.1	13113	100
2025-5-21 22:28:34.391	WT901BLE68(B088180A53F4)	-0.047	0.721	-0.040	124.512	-144.531	151.611	64.22	7.20	108.53	-14.392	-118.458	-179.683	0.71753	0.13834	0.37375	0.57114	23.1	13113	100
2025-5-21 22:28:34.391	WT901BLE68(B088180A53F4)	-0.036	0.721	-0.040	124.512	-144.531	151.611	64.85	6.26	108.16	-14.392	-118.458	-179.683	0.71753	0.13834	0.37375	0.57114	23.1	13113	100
2025-5-21 22:28:34.391	WT901BLE68(B088180A53F4)	-0.036	0.780	0.021	90.759	-74.280	153.503	65.34	5.45	108.10	-14.392	-118.458	-179.683	0.71753	0.13834	0.37375	0.57114	23.1	13113	100
2025-5-21 22:28:34.391	WT901BLE68(B088180A53F4)	-0.036	0.780	0.021	90.759	-74.280	153.503	65.83	4.64	108.03	-14.392	-118.458	-179.683	0.71753	0.13834	0.37375	0.57114	23.1	13113	100
2025-5-21 22:28:34.392	WT901BLE68(B088180A53F4)	-0.036	0.780	0.021	90.759	-74.280	153.503	66.32	3.83	107.96	-14.392	-118.458	-179.683	0.71753	0.13834	0.37375	0.57114	23.1	13113	100
2025-5-21 22:28:34.392	WT901BLE68(B088180A53F4)	0.001	0.780	0.021	90.759	-74.280	153.503	66.82	3.02	107.88	-14.392	-118.458	-179.683	0.71753	0.13834	0.37375	0.57114	23.1	13113	100
2025-5-21 22:28:34.410	WT901BLE68(B088180A53F4)	0.001	0.824	-0.021	85.693	-42.908	169.861	67.30	2.19	107.97	-14.392	-118.458	-179.683	0.49356	0.31976	0.46869	0.65906	23.1	13113	100
2025-5-21 22:28:34.411	WT901BLE68(B088180A53F4)	0.001	0.824	-0.021	85.693	-42.908	169.861	67.77	1.36	108.05	-14.392	-118.458	-179.683	0.49356	0.31976	0.46869	0.65906	23.1	13113	100
2025-5-21 22:28:34.411	WT901BLE68(B088180A53F4)	0.001	0.824	-0.021	85.693	-42.908	169.861	68.25	0.53	108.12	-14.392	-118.458	-179.683	0.49356	0.31976	0.46869	0.65906	23.1	13113	100
2025-5-21 22:28:34.411	WT901BLE68(B088180A53F4)	0.063	0.824	-0.021	85.693	-42.908	169.861	68.72	-0.30	108.18	-14.392	-118.458	-179.683	0.49356	0.31976	0.46869	0.65906	23.1	13113	100
2025-5-21 22:28:34.411	WT901BLE68(B088180A53F4)	0.063	0.884	0.046	87.952	-27.588	183.777	69.20	-1.17	108.33	-14.392	-118.458	-179.683	0.49356	0.31976	0.46869	0.65906	23.1	13113	100
2025-5-21 22:28:34.411	WT901BLE68(B088180A53F4)	0.063	0.884	0.046	87.952	-27.588	183.777	69.68	-2.04	108.47	-14.392	-118.458	-179.683	0.49356	0.31976	0.46869	0.65906	23.1	13113	100
2025-5-21 22:28:34.411	WT901BLE68(B088180A53F4)	0.063	0.884	0.046	87.952	-27.588	183.777	70.15	-2.92	108.61	-14.392	-118.458	-179.683	0.49356	0.31976	0.46869	0.65906	23.1	13113	100
2025-5-21 22:28:34.411	WT901BLE68(B088180A53F4)	0.299	0.884	0.046	87.952	-27.588	183.777	70.63	-3.80	108.73	-14.392	-118.458	-179.683	0.49356	0.31976	0.46869	0.65906	23.1	13113	100
2025-5-21 22:28:34.455	WT901BLE68(B088180A53F4)	0.299	0.928	0.033	34.485	-21.118	144.714	70.83	-4.49	108.83	-14.392	-118.458	-179.683	0.49356	0.31976	0.46869	0.65906	23.1	13113	100
2025-5-21 22:28:34.456	WT901BLE68(B088180A53F4)	0.299	0.928	0.033	34.485	-21.118	144.714	71.03	-5.17	108.92	-14.392	-118.458	-179.683	0.49356	0.31976	0.46869	0.65906	23.1	13113	100
2025-5-21 22:28:34.456	WT901BLE68(B088180A53F4)	0.299	0.928	0.033	34.485	-21.118	144.714	71.24	-5.87	109.01	-14.392	-118.458	-179.683	0.49356	0.31976	0.46869	0.65906	23.1	13113	100
2025-5-21 22:28:34.456	WT901BLE68(B088180A53F4)	0.194	0.928	0.033	34.485	-21.118	144.714	71.44	-6.56	109.09	-14.392	-118.458	-179.683	0.49356	0.31976	0.46869	0.65906	23.1	13113	100
2025-5-21 22:28:34.456	WT901BLE68(B088180A53F4)	0.194	0.757	-0.043	-35.828	-3.784	69.275	71.29	-6.88	109.15	-14.392	-118.458	-179.683	0.49356	0.31976	0.46869	0.65906	23.1	13113	100
2025-5-21 22:28:34.457	WT901BLE68(B088180A53F4)	0.194	0.757	-0.043	-35.828	-3.784	69.275	71.14	-7.19	109.21	-14.392	-118.458	-179.683	0.49356	0.31976	0.46869	0.65906	23.1	13113	100
2025-5-21 22:28:34.457	WT901BLE68(B088180A53F4)	0.194	0.757	-0.043	-35.828	-3.784	69.275	71.00	-7.50	109.27	-14.392	-118.458	-179.683	0.49356	0.31976	0.46869	0.65906	23.1	13113	100
2025-5-21 22:28:34.457	WT901BLE68(B088180A53F4)	0.204	0.757	-0.043	-35.828	-3.784	69.275	70.85	-7.82	109.33	-14.392	-118.458	-179.683	0.49356	0.31976	0.46869	0.65906	23.1	13113	100
2025-5-21 22:28:34.468	WT901BLE68(4F145CEDD531)	-0.062	1.279	0.965	-174.988	28.748	-126.221	59.69	21.28	-119.44	-41.650	-58.450	33.708	-0.31622	-0.35931	0.28568	0.83014	25.6	13113	90
2025-5-21 22:28:34.498	WT901BLE68(B088180A53F4)	0.204	0.781	0.112	-38.574	-40.161	97.229	70.71	-8.32	109.26	-14.392	-118.458	-179.683	0.49356	0.31976	0.46869	0.65906	23.1	13113	100
2025-5-21 22:28:34.499	WT901BLE68(B088180A53F4)	0.204	0.781	0.112	-38.574	-40.161	97.229	70.57	-8.83	109.19	-14.392	-118.458	-179.683	0.49356	0.31976	0.46869	0.65906	23.1	13113	100
2025-5-21 22:28:34.499	WT901BLE68(B088180A53F4)	0.204	0.781	0.112	-38.574	-40.161	97.229	70.43	-9.33	109.12	-14.392	-118.458	-179.683	0.49356	0.31976	0.46869	0.65906	23.1	13113	100
2025-5-21 22:28:34.499	WT901BLE68(B088180A53F4)	0.398	0.781	0.112	-38.574	-40.161	97.229	70.29	-9.84	109.06	-14.392	-118.458	-179.683	0.49356	0.31976	0.46869	0.65906	23.1	13113	100
2025-5-21 22:28:34.499	WT901BLE68(B088180A53F4)	0.398	0.995	0.243	-17.456	-48.279	105.652	70.25	-10.40	108.96	-14.392	-118.458	-179.683	0.49356	0.31976	0.46869	0.65906	23.1	13113	100
2025-5-21 22:28:34.499	WT901BLE68(B088180A53F4)	0.398	0.995	0.243	-17.456	-48.279	105.652	70.22	-10.96	108.87	-14.392	-118.458	-179.683	0.49356	0.31976	0.46869	0.65906	23.1	13113	100
2025-5-21 22:28:34.499	WT901BLE68(B088180A53F4)	0.398	0.995	0.243	-17.456	-48.279	105.652	70.18	-11.53	108.78	-14.392	-118.458	-179.683	0.49356	0.31976	0.46869	0.65906	23.1	13113	100
2025-5-21 22:28:34.499	WT901BLE68(B088180A53F4)	0.501	0.995	0.243	-17.456	-48.279	105.652	70.14	-12.10	108.68	-14.392	-118.458	-179.683	0.49356	0.31976	0.46869	0.65906	23.1	13113	100
2025-5-21 22:28:34.535	WT901BLE68(4F145CEDD531)	-0.366	1.895	0.833	-103.638	-136.108	-27.161	40.58	21.81	-134.13	-41.650	-58.450	33.708	-0.31622	-0.35931	0.28568	0.83014	25.6	13113	90
2025-5-21 22:28:34.544	WT901BLE68(B088180A53F4)	0.501	0.978	0.351	-30.945	-28.931	46.631	70.04	-12.35	108.59	-14.392	-118.458	-179.683	0.49356	0.31976	0.46869	0.65906	23.1	13113	100
2025-5-21 22:28:34.544	WT901BLE68(B088180A53F4)	0.501	0.978	0.351	-30.945	-28.931	46.631	69.93	-12.61	108.50	-14.392	-118.458	-179.683	0.49356	0.31976	0.46869	0.65906	23.1	13113	100
2025-5-21 22:28:34.544	WT901BLE68(B088180A53F4)	0.501	0.978	0.351	-30.945	-28.931	46.631	69.82	-12.88	108.41	-14.392	-118.458	-179.683	0.49356	0.31976	0.46869	0.65906	23.1	13113	100
2025-5-21 22:28:34.544	WT901BLE68(B088180A53F4)	0.416	0.978	0.351	-30.945	-28.931	46.631	69.71	-13.15	108.32	-14.392	-118.458	-179.683	0.49356	0.31976	0.46869	0.65906	23.1	13113	100
2025-5-21 22:28:34.545	WT901BLE68(B088180A53F4)	0.416	0.896	0.099	-92.285	-72.021	-2.075	69.36	-13.25	107.94	-14.392	-118.458	-179.683	0.49356	0.31976	0.46869	0.65906	23.1	13113	100
2025-5-21 22:28:34.545	WT901BLE68(B088180A53F4)	0.416	0.896	0.099	-92.285	-72.021	-2.075	69.01	-13.36	107.57	-14.392	-118.458	-179.683	0.49356	0.31976	0.46869	0.65906	23.1	13113	100
2025-5-21 22:28:34.545	WT901BLE68(B088180A53F4)	0.416	0.896	0.099	-92.285	-72.021	-2.075	68.65	-13.47	107.19	-14.392	-118.458	-179.683	0.49356	0.31976	0.46869	0.65906	23.1	13113	100
2025-5-21 22:28:34.545	WT901BLE68(B088180A53F4)	0.349	0.896	0.099	-92.285	-72.021	-2.075	68.31	-13.59	106.81	-14.392	-118.458	-179.683	0.49356	0.31976	0.46869	0.65906	23.1	13113	100
2025-5-21 22:28:34.595	WT901BLE68(B088180A53F4)	0.349	0.911	0.313	-113.281	-60.547	-2.441	67.85	-13.69	106.50	-14.392	-118.458	-179.683	0.49356	0.31976	0.46869	0.65906	23.1	13113	100
2025-5-21 22:28:34.595	WT901BLE68(B088180A53F4)	0.349	0.911	0.313	-113.281	-60.547	-2.441	67.38	-13.79	106.18	-14.392	-118.458	-179.683	0.49356	0.31976	0.46869	0.65906	23.1	13113	100
2025-5-21 22:28:34.595	WT901BLE68(B088180A53F4)	0.349	0.911	0.313	-113.281	-60.547	-2.441	66.92	-13.89	105.86	-14.392	-118.458	-179.683	0.49356	0.31976	0.46869	0.65906	23.1	13113	100
2025-5-21 22:28:34.595	WT901BLE68(B088180A53F4)	0.238	0.911	0.313	-113.281	-60.547	-2.441	66.45	-14.00	105.54	-14.392	-118.458	-179.683	0.49356	0.31976	0.46869	0.65906	23.1	13113	100
2025-5-21 22:28:34.595	WT901BLE68(B088180A53F4)	0.238	0.737	0.238	-84.351	-136.475	75.500	66.19	-14.61	105.01	-14.392	-118.458	-179.683	0.49356	0.31976	0.46869	0.65906	23.1	13113	100
2025-5-21 22:28:34.595	WT901BLE68(B088180A53F4)	0.238	0.737	0.238	-84.351	-136.475	75.500	65.93	-15.22	104.48	-14.392	-118.458	-179.683	0.49356	0.31976	0.46869	0.65906	23.1	13113	100
2025-5-21 22:28:34.595	WT901BLE68(B088180A53F4)	0.238	0.737	0.238	-84.351	-136.475	75.500	65.67	-15.84	103.95	-14.392	-118.458	-179.683	0.49356	0.31976	0.46869	0.65906	23.1	13113	100
2025-5-21 22:28:34.595	WT901BLE68(B088180A53F4)	0.395	0.737	0.238	-84.351	-136.475	75.500	65.42	-16.45	103.42	-14.392	-118.458	-179.683	0.49356	0.31976	0.46869	0.65906	23.1	13113	100
2025-5-21 22:28:34.656	WT901BLE68(B088180A53F4)	0.395	0.868	0.106	-0.366	-54.626	126.587	65.46	-17.14	103.39	-60.333	-109.808	-159.767	0.49356	0.31976	0.46869	0.65906	23.1	13113	100
2025-5-21 22:28:34.657	WT901BLE68(B088180A53F4)	0.395	0.868	0.106	-0.366	-54.626	126.587	65.49	-17.83	103.35	-60.333	-109.808	-159.767	0.49356	0.31976	0.46869	0.65906	23.1	13113	100
2025-5-21 22:28:34.657	WT901BLE68(B088180A53F4)	0.395	0.868	0.106	-0.366	-54.626	126.587	65.52	-18.51	103.32	-60.333	-109.808	-159.767	0.49356	0.31976	0.46869	0.65906	23.1	13113	100
2025-5-21 22:28:34.657	WT901BLE68(B088180A53F4)	0.555	0.868	0.106	-0.366	-54.626	126.587	65.56	-19.20	103.28	-60.333	-109.808	-159.767	0.49356	0.31976	0.46869	0.65906	23.1	13113	100
2025-5-21 22:28:34.657	WT901BLE68(B088180A53F4)	0.555	0.890	0.013	-8.423	-143.005	48.157	65.75	-19.70	102.66	-60.333	-109.808	-159.767	0.49356	0.31976	0.46869	0.65906	23.1	13113	100
2025-5-21 22:28:34.657	WT901BLE68(B088180A53F4)	0.555	0.890	0.013	-8.423	-143.005	48.157	65.95	-20.19	102.02	-60.333	-109.808	-159.767	0.49356	0.31976	0.46869	0.65906	23.1	13113	100
2025-5-21 22:28:34.657	WT901BLE68(B088180A53F4)	0.458	0.890	0.013	-8.423	-143.005	48.157	66.16	-20.69	101.39	-60.333	-109.808	-159.767	0.49356	0.31976	0.46869	0.65906	23.1	13113	100
2025-5-21 22:28:34.657	WT901BLE68(B088180A53F4)	0.458	1.013	0.176	-32.288	-294.556	-3.540	66.56	-21.21	99.89	-60.333	-109.808	-159.767	0.49356	0.31976	0.46869	0.65906	23.1	13113	100
2025-5-21 22:28:34.658	WT901BLE68(B088180A53F4)	0.458	1.013	0.176	-32.288	-294.556	-3.540	66.97	-21.74	98.38	-60.333	-109.808	-159.767	0.49356	0.31976	0.46869	0.65906	23.1	13113	100
2025-5-21 22:28:34.658	WT901BLE68(B088180A53F4)	0.458	1.013	0.176	-32.288	-294.556	-3.540	67.40	-22.25	96.87	-60.333	-109.808	-159.767	0.49356	0.31976	0.46869	0.65906	23.1	13113	100
2025-5-21 22:28:34.658	WT901BLE68(B088180A53F4)	0.547	1.013	0.176	-32.288	-294.556	-3.540	67.84	-22.75	95.34	-60.333	-109.808	-159.767	0.49356	0.31976	0.46869	0.65906	23.1	13113	100
2025-5-21 22:28:34.658	WT901BLE68(B088180A53F4)	0.547	1.086	0.293	-54.443	-294.922	3.540	68.18	-23.27	93.82	-60.333	-109.808	-159.767	0.49356	0.31976	0.46869	0.65906	23.1	13113	100
2025-5-21 22:28:34.658	WT901BLE68(B088180A53F4)	0.547	1.086	0.293	-54.443	-294.922	3.540	68.53	-23.78	92.29	-60.333	-109.808	-159.767	0.49356	0.31976	0.46869	0.65906	23.1	13113	100
2025-5-21 22:28:34.658	WT901BLE68(B088180A53F4)	0.547	1.086	0.293	-54.443	-294.922	3.540	68.90	-24.29	90.75	-60.333	-109.808	-159.767	0.49356	0.31976	0.46869	0.65906	23.1	13113	100
2025-5-21 22:28:34.658	WT901BLE68(B088180A53F4)	0.585	1.086	0.293	-54.443	-294.922	3.540	69.27	-24.77	89.19	-60.333	-109.808	-159.767	0.49356	0.31976	0.46869	0.65906	23.1	13113	100
2025-5-21 22:28:34.658	WT901BLE68(B088180A53F4)	0.585	1.094	0.250	-68.115	-159.485	29.968	69.29	-25.17	88.39	-60.333	-109.808	-159.767	0.49356	0.31976	0.46869	0.65906	23.1	13113	100
2025-5-21 22:28:34.668	WT901BLE68(4F145CEDD531)	-0.454	1.276	0.621	-50.476	-162.842	67.566	32.22	5.37	-140.92	-32.658	-54.692	-14.717	-0.31622	-0.35931	0.28568	0.83014	25.6	13113	90
2025-5-21 22:28:34.701	WT901BLE68(B088180A53F4)	0.585	1.094	0.250	-68.115	-159.485	29.968	69.30	-25.57	87.58	-60.333	-109.808	-159.767	0.49356	0.31976	0.46869	0.65906	23.1	13113	100
2025-5-21 22:28:34.701	WT901BLE68(B088180A53F4)	0.585	1.094	0.250	-68.115	-159.485	29.968	69.32	-25.96	86.77	-60.333	-109.808	-159.767	0.49356	0.31976	0.46869	0.65906	23.1	13113	100
2025-5-21 22:28:34.701	WT901BLE68(B088180A53F4)	0.557	1.094	0.250	-68.115	-159.485	29.968	69.35	-26.35	85.95	-60.333	-109.808	-159.767	0.49356	0.31976	0.46869	0.65906	23.1	13113	100
2025-5-21 22:28:34.701	WT901BLE68(B088180A53F4)	0.557	1.013	0.031	-54.688	-149.109	26.794	69.43	-26.71	85.19	-60.333	-109.808	-159.767	0.49356	0.31976	0.46869	0.65906	23.1	13113	100
2025-5-21 22:28:34.701	WT901BLE68(B088180A53F4)	0.557	1.013	0.031	-54.688	-149.109	26.794	69.52	-27.07	84.41	-60.333	-109.808	-159.767	0.49356	0.31976	0.46869	0.65906	23.1	13113	100
2025-5-21 22:28:34.701	WT901BLE68(B088180A53F4)	0.557	1.013	0.031	-54.688	-149.109	26.794	69.61	-27.43	83.64	-60.333	-109.808	-159.767	0.49356	0.31976	0.46869	0.65906	23.1	13113	100
2025-5-21 22:28:34.701	WT901BLE68(B088180A53F4)	0.555	1.013	0.031	-54.688	-149.109	26.794	69.71	-27.78	82.86	-60.333	-109.808	-159.767	0.49356	0.31976	0.46869	0.65906	23.1	13113	100
2025-5-21 22:28:34.702	WT901BLE68(B088180A53F4)	0.555	0.963	0.012	-41.443	-156.616	24.841	69.91	-28.14	82.04	-60.333	-109.808	-159.767	0.49356	0.31976	0.46869	0.65906	23.1	13113	100
2025-5-21 22:28:34.736	WT901BLE68(4F145CEDD531)	-0.378	0.976	0.396	80.933	-34.851	102.783	37.96	-6.88	-137.95	-32.658	-54.692	-14.717	-0.31622	-0.35931	0.28568	0.83014	25.6	13113	90
2025-5-21 22:28:34.747	WT901BLE68(B088180A53F4)	0.555	0.963	0.012	-41.443	-156.616	24.841	70.10	-28.49	81.21	-60.333	-109.808	-159.767	0.49356	0.31976	0.46869	0.65906	23.1	13113	100
2025-5-21 22:28:34.748	WT901BLE68(B088180A53F4)	0.555	0.963	0.012	-41.443	-156.616	24.841	70.31	-28.84	80.38	-60.333	-109.808	-159.767	0.49356	0.31976	0.46869	0.65906	23.1	13113	100
2025-5-21 22:28:34.748	WT901BLE68(B088180A53F4)	0.597	0.963	0.012	-41.443	-156.616	24.841	70.53	-29.20	79.54	-60.333	-109.808	-159.767	0.49356	0.31976	0.46869	0.65906	23.1	13113	100
2025-5-21 22:28:34.748	WT901BLE68(B088180A53F4)	0.597	0.890	-0.080	-67.932	-220.642	-4.089	70.81	-29.50	78.30	-60.333	-109.808	-159.767	0.49356	0.31976	0.46869	0.65906	23.1	13113	100
2025-5-21 22:28:34.748	WT901BLE68(B088180A53F4)	0.597	0.890	-0.080	-67.932	-220.642	-4.089	71.10	-29.80	77.05	-60.333	-109.808	-159.767	0.49356	0.31976	0.46869	0.65906	23.1	13113	100
2025-5-21 22:28:34.748	WT901BLE68(B088180A53F4)	0.597	0.890	-0.080	-67.932	-220.642	-4.089	71.40	-30.09	75.80	-60.333	-109.808	-159.767	0.49356	0.31976	0.46869	0.65906	23.1	13113	100
2025-5-21 22:28:34.748	WT901BLE68(B088180A53F4)	0.600	0.890	-0.080	-67.932	-220.642	-4.089	71.71	-30.38	74.54	-60.333	-109.808	-159.767	0.49356	0.31976	0.46869	0.65906	23.1	13113	100
2025-5-21 22:28:34.748	WT901BLE68(B088180A53F4)	0.600	0.793	0.059	-72.083	-318.176	-15.747	72.30	-30.75	72.72	-60.333	-109.808	-159.767	0.49356	0.31976	0.46869	0.65906	23.1	13113	100
2025-5-21 22:28:34.791	WT901BLE68(B088180A53F4)	0.600	0.793	0.059	-72.083	-318.176	-15.747	72.89	-31.09	70.88	-60.333	-109.808	-159.767	0.49356	0.31976	0.46869	0.65906	23.1	13113	100
2025-5-21 22:28:34.791	WT901BLE68(B088180A53F4)	0.600	0.793	0.059	-72.083	-318.176	-15.747	73.49	-31.42	69.03	-60.333	-109.808	-159.767	0.49356	0.31976	0.46869	0.65906	23.1	13113	100
2025-5-21 22:28:34.791	WT901BLE68(B088180A53F4)	0.718	0.793	0.059	-72.083	-318.176	-15.747	74.11	-31.73	67.18	-60.333	-109.808	-159.767	0.49356	0.31976	0.46869	0.65906	23.1	13113	100
2025-5-21 22:28:34.791	WT901BLE68(B088180A53F4)	0.718	0.752	0.353	-59.021	-296.814	5.981	74.73	-32.11	65.46	-60.333	-109.808	-159.767	0.49356	0.31976	0.46869	0.65906	23.1	13113	100
2025-5-21 22:28:34.791	WT901BLE68(B088180A53F4)	0.718	0.752	0.353	-59.021	-296.814	5.981	75.36	-32.46	63.74	-60.333	-109.808	-159.767	0.49356	0.31976	0.46869	0.65906	23.1	13113	100
2025-5-21 22:28:34.791	WT901BLE68(B088180A53F4)	0.718	0.752	0.353	-59.021	-296.814	5.981	75.99	-32.81	62.00	-60.333	-109.808	-159.767	0.49356	0.31976	0.46869	0.65906	23.1	13113	100
