Time,Device name,Chip Time(),Acceleration X(g),Acceleration Y(g),Acceleration Z(g),Angular velocity X(°/s),Angular velocity Y(°/s),Angular velocity Z(°/s),Angle X(°),Angle Y(°),Angle Z(°),Magnetic field X(ʯt),Magnetic field Y(ʯt),Magnetic field Z(ʯt),Temperature(℃),Quaternions 0(),Quaternions 1(),Quaternions 2(),Quaternions 3()
 08:17:08.023,f7:68:33:b1:9e:f1, 2015-01-01 01:03:10.045, -0.157, 0.804, 0.601, 2.075, 0.61, -0.488, 51.735, 8.218, 22.335, -12.080, -81.380, -162.980, 23.75, -0.88193, -0.42389, -0.14954, -0.1416,
 08:17:08.024,f7:68:33:b1:9e:f1, 2015-01-01 01:03:10.045, -0.157, 0.811, 0.597, 2.563, 0.549, -0.061, 51.746, 8.218, 22.335, -12.080, -81.380, -162.980, 23.75, -0.88193, -0.42389, -0.14954, -0.1416,
 08:17:08.024,f7:68:33:b1:9e:f1, 2015-01-01 01:03:10.045, -0.157, 0.811, 0.597, 2.563, 0.549, -0.061, 51.762, 8.223, 22.335, -12.080, -81.380, -162.980, 23.75, -0.88193, -0.42389, -0.14954, -0.1416,
 08:17:08.024,f7:68:33:b1:9e:f1, 2015-01-01 01:03:10.045, -0.157, 0.811, 0.597, 2.563, 0.549, -0.061, 51.773, 8.223, 22.341, -12.080, -81.380, -162.980, 23.75, -0.88193, -0.42389, -0.14954, -0.1416,
 08:17:08.024,f7:68:33:b1:9e:f1, 2015-01-01 01:03:10.045, -0.157, 0.811, 0.597, 2.563, 0.549, -0.061, 51.784, 8.229, 22.341, -12.080, -81.380, -162.980, 23.75, -0.88193, -0.42389, -0.14954, -0.1416,
 08:17:08.024,f7:68:33:b1:9e:f1, 2015-01-01 01:03:10.045, -0.157, 0.81, 0.589, 2.869, 0.916, 0.549, 51.801, 8.229, 22.346, -12.080, -81.380, -162.980, 23.75, -0.88193, -0.42389, -0.14954, -0.1416,
 08:17:08.024,f7:68:33:b1:9e:f1, 2015-01-01 01:03:10.045, -0.157, 0.81, 0.589, 2.869, 0.916, 0.549, 51.812, 8.229, 22.352, -12.080, -81.380, -162.980, 23.75, -0.88193, -0.42389, -0.14954, -0.1416,
 08:17:08.024,f7:68:33:b1:9e:f1, 2015-01-01 01:03:10.045, -0.157, 0.81, 0.589, 2.869, 0.916, 0.549, 51.828, 8.234, 22.357, -12.080, -81.380, -162.980, 23.75, -0.88193, -0.42389, -0.14954, -0.1416,
 08:17:08.037,d6:24:01:31:b7:6e, 2015-01-01 00:58:55.080, -0.094, 0.936, 0.358, 2.93, 0.671, -0.305, 68.637, 5.015, -74.152, -14.333, -41.553, -22.160, 25.66, 0.64319, 0.47153, -0.31085, -0.51697,
 08:17:08.053,f7:68:33:b1:9e:f1, 2015-01-01 01:03:10.045, -0.156, 0.81, 0.589, 2.869, 0.916, 0.549, 51.844, 8.234, 22.363, -12.080, -81.380, -162.980, 23.75, -0.88193, -0.42389, -0.14954, -0.1416,
 08:17:08.053,f7:68:33:b1:9e:f1, 2015-01-01 01:03:10.045, -0.156, 0.806, 0.587, 3.052, 1.282, 1.282, 51.861, 8.234, 22.374, -12.080, -81.380, -162.980, 23.75, -0.88193, -0.42389, -0.14954, -0.1416,
 08:17:08.053,f7:68:33:b1:9e:f1, 2015-01-01 01:03:10.045, -0.156, 0.806, 0.587, 3.052, 1.282, 1.282, 51.872, 8.234, 22.379, -12.080, -81.380, -162.980, 23.75, -0.88193, -0.42389, -0.14954, -0.1416,
 08:17:08.053,f7:68:33:b1:9e:f1, 2015-01-01 01:03:10.045, -0.156, 0.806, 0.587, 3.052, 1.282, 1.282, 51.888, 8.234, 22.39, -12.080, -81.380, -162.980, 23.75, -0.88193, -0.42389, -0.14954, -0.1416,
 08:17:08.053,f7:68:33:b1:9e:f1, 2015-01-01 01:03:10.045, -0.155, 0.806, 0.587, 3.052, 1.282, 1.282, 51.905, 8.234, 22.401, -12.080, -81.380, -162.980, 23.75, -0.88193, -0.42389, -0.14954, -0.1416,
 08:17:08.053,f7:68:33:b1:9e:f1, 2015-01-01 01:03:10.045, -0.155, 0.807, 0.583, 3.418, 1.282, 0.977, 51.927, 8.234, 22.407, -12.080, -81.380, -162.980, 23.75, -0.88193, -0.42389, -0.14954, -0.1416,
 08:17:08.053,f7:68:33:b1:9e:f1, 2015-01-01 01:03:10.045, -0.155, 0.807, 0.583, 3.418, 1.282, 0.977, 51.943, 8.234, 22.418, -12.080, -81.380, -162.980, 23.75, -0.88193, -0.42389, -0.14954, -0.1416,
 08:17:08.053,f7:68:33:b1:9e:f1, 2015-01-01 01:03:10.045, -0.155, 0.807, 0.583, 3.418, 1.282, 0.977, 51.96, 8.234, 22.423, -12.080, -81.380, -162.980, 23.75, -0.88193, -0.42389, -0.14954, -0.1416,
 08:17:08.113,f7:68:33:b1:9e:f1, 2015-01-01 01:03:10.045, -0.157, 0.807, 0.583, 3.418, 1.282, 0.977, 51.976, 8.234, 22.434, -12.080, -81.380, -162.980, 23.75, -0.87912, -0.42938, -0.15161, -0.14032,
 08:17:08.113,f7:68:33:b1:9e:f1, 2015-01-01 01:03:10.045, -0.157, 0.811, 0.575, 2.319, 2.075, 0.488, 51.993, 8.24, 22.44, -12.080, -81.380, -162.980, 23.75, -0.87912, -0.42938, -0.15161, -0.14032,
 08:17:08.113,f7:68:33:b1:9e:f1, 2015-01-01 01:03:10.045, -0.157, 0.811, 0.575, 2.319, 2.075, 0.488, 52.004, 8.245, 22.451, -12.080, -81.380, -162.980, 23.75, -0.87912, -0.42938, -0.15161, -0.14032,
 08:17:08.113,f7:68:33:b1:9e:f1, 2015-01-01 01:03:10.045, -0.157, 0.811, 0.575, 2.319, 2.075, 0.488, 52.015, 8.251, 22.462, -12.080, -81.380, -162.980, 23.75, -0.87912, -0.42938, -0.15161, -0.14032,
 08:17:08.113,f7:68:33:b1:9e:f1, 2015-01-01 01:03:10.045, -0.16, 0.811, 0.575, 2.319, 2.075, 0.488, 52.031, 8.256, 22.473, -12.080, -81.380, -162.980, 23.75, -0.87912, -0.42938, -0.15161, -0.14032,
 08:17:08.113,f7:68:33:b1:9e:f1, 2015-01-01 01:03:10.045, -0.16, 0.821, 0.58, 3.906, 2.686, 0.366, 52.053, 8.267, 22.484, -12.080, -81.380, -162.980, 23.75, -0.87912, -0.42938, -0.15161, -0.14032,
 08:17:08.113,f7:68:33:b1:9e:f1, 2015-01-01 01:03:10.045, -0.16, 0.821, 0.58, 3.906, 2.686, 0.366, 52.07, 8.273, 22.495, -12.080, -81.380, -162.980, 23.75, -0.87912, -0.42938, -0.15161, -0.14032,
 08:17:08.113,f7:68:33:b1:9e:f1, 2015-01-01 01:03:10.045, -0.16, 0.821, 0.58, 3.906, 2.686, 0.366, 52.092, 8.284, 22.505, -12.080, -81.380, -162.980, 23.75, -0.87912, -0.42938, -0.15161, -0.14032,
 08:17:08.127,d6:24:01:31:b7:6e, 2015-01-01 00:58:55.080, -0.097, 0.945, 0.356, 3.052, 0.916, 0.854, 68.868, 5.032, -74.108, -14.333, -41.553, -22.160, 25.66, 0.64319, 0.47153, -0.31085, -0.51697,
 08:17:08.143,f7:68:33:b1:9e:f1, 2015-01-01 01:03:10.405, -0.164, 0.821, 0.58, 3.906, 2.686, 0.366, 52.114, 8.289, 22.516, -12.080, -81.380, -162.980, 23.75, -0.87912, -0.42938, -0.15161, -0.14032,
 08:17:08.143,f7:68:33:b1:9e:f1, 2015-01-01 01:03:10.405, -0.164, 0.83, 0.58, 4.456, 2.869, 0.61, 52.141, 8.295, 22.533, -12.080, -81.380, -162.980, 23.75, -0.87912, -0.42938, -0.15161, -0.14032,
 08:17:08.143,f7:68:33:b1:9e:f1, 2015-01-01 01:03:10.405, -0.164, 0.83, 0.58, 4.456, 2.869, 0.61, 52.163, 8.306, 22.544, -12.080, -81.380, -162.980, 23.75, -0.87912, -0.42938, -0.15161, -0.14032,
 08:17:08.143,f7:68:33:b1:9e:f1, 2015-01-01 01:03:10.405, -0.164, 0.83, 0.58, 4.456, 2.869, 0.61, 52.191, 8.311, 22.56, -12.080, -81.380, -162.980, 23.75, -0.87912, -0.42938, -0.15161, -0.14032,
 08:17:08.143,f7:68:33:b1:9e:f1, 2015-01-01 01:03:10.405, -0.173, 0.83, 0.58, 4.456, 2.869, 0.61, 52.213, 8.317, 22.571, -12.080, -81.380, -162.980, 23.75, -0.87912, -0.42938, -0.15161, -0.14032,
 08:17:08.143,f7:68:33:b1:9e:f1, 2015-01-01 01:03:10.405, -0.173, 0.828, 0.568, 4.15, 2.136, 0.732, 52.234, 8.322, 22.582, -12.080, -81.380, -162.980, 23.75, -0.87912, -0.42938, -0.15161, -0.14032,
 08:17:08.143,f7:68:33:b1:9e:f1, 2015-01-01 01:03:10.405, -0.173, 0.828, 0.568, 4.15, 2.136, 0.732, 52.262, 8.328, 22.593, -12.080, -81.380, -162.980, 23.75, -0.87912, -0.42938, -0.15161, -0.14032,
 08:17:08.143,f7:68:33:b1:9e:f1, 2015-01-01 01:03:10.405, -0.173, 0.828, 0.568, 4.15, 2.136, 0.732, 52.284, 8.333, 22.604, -12.080, -81.380, -162.980, 23.75, -0.87912, -0.42938, -0.15161, -0.14032,
 08:17:08.173,f7:68:33:b1:9e:f1, 2015-01-01 01:03:10.405, -0.18, 0.828, 0.568, 4.15, 2.136, 0.732, 52.306, 8.339, 22.615, -12.080, -81.380, -162.980, 23.75, -0.87912, -0.42938, -0.15161, -0.14032,
 08:17:08.173,f7:68:33:b1:9e:f1, 2015-01-01 01:03:10.405, -0.18, 0.833, 0.543, 4.578, 3.967, 2.686, 52.333, 8.339, 22.643, -12.080, -81.380, -162.980, 23.75, -0.87912, -0.42938, -0.15161, -0.14032,
 08:17:08.173,f7:68:33:b1:9e:f1, 2015-01-01 01:03:10.405, -0.18, 0.833, 0.543, 4.578, 3.967, 2.686, 52.361, 8.344, 22.665, -12.080, -81.380, -162.980, 23.75, -0.87912, -0.42938, -0.15161, -0.14032,
 08:17:08.173,f7:68:33:b1:9e:f1, 2015-01-01 01:03:10.405, -0.18, 0.833, 0.543, 4.578, 3.967, 2.686, 52.388, 8.344, 22.687, -12.080, -81.380, -162.980, 23.75, -0.87912, -0.42938, -0.15161, -0.14032,
 08:17:08.173,f7:68:33:b1:9e:f1, 2015-01-01 01:03:10.405, -0.183, 0.833, 0.543, 4.578, 3.967, 2.686, 52.421, 8.35, 22.714, -12.080, -81.380, -162.980, 23.75, -0.87912, -0.42938, -0.15161, -0.14032,
 08:17:08.173,f7:68:33:b1:9e:f1, 2015-01-01 01:03:10.405, -0.183, 0.816, 0.541, 6.836, 5.249, 3.296, 52.46, 8.355, 22.747, -12.080, -81.380, -162.980, 23.75, -0.87912, -0.42938, -0.15161, -0.14032,
 08:17:08.173,f7:68:33:b1:9e:f1, 2015-01-01 01:03:10.405, -0.183, 0.816, 0.541, 6.836, 5.249, 3.296, 52.504, 8.361, 22.775, -12.080, -81.380, -162.980, 23.75, -0.87912, -0.42938, -0.15161, -0.14032,
 08:17:08.174,f7:68:33:b1:9e:f1, 2015-01-01 01:03:10.405, -0.192, 0.816, 0.541, 6.836, 5.249, 3.296, 52.542, 8.361, 22.808, -12.080, -81.380, -162.980, 23.75, -0.87912, -0.42938, -0.15161, -0.14032,
 08:17:08.234,f7:68:33:b1:9e:f1, 2015-01-01 01:03:10.405, -0.192, 0.83, 0.521, 8.057, 7.202, 2.441, 52.592, 8.377, 22.846, -12.080, -81.380, -162.980, 23.75, -0.87912, -0.42938, -0.15161, -0.14032,
 08:17:08.234,f7:68:33:b1:9e:f1, 2015-01-01 01:03:10.405, -0.192, 0.83, 0.521, 8.057, 7.202, 2.441, 52.641, 8.394, 22.879, -12.080, -81.380, -162.980, 23.75, -0.87912, -0.42938, -0.15161, -0.14032,
 08:17:08.234,f7:68:33:b1:9e:f1, 2015-01-01 01:03:10.405, -0.192, 0.83, 0.521, 8.057, 7.202, 2.441, 52.69, 8.405, 22.917, -12.080, -81.380, -162.980, 23.75, -0.87912, -0.42938, -0.15161, -0.14032,
 08:17:08.234,f7:68:33:b1:9e:f1, 2015-01-01 01:03:10.405, -0.198, 0.83, 0.521, 8.057, 7.202, 2.441, 52.734, 8.421, 22.956, -12.080, -81.380, -162.980, 23.75, -0.87912, -0.42938, -0.15161, -0.14032,
 08:17:08.234,f7:68:33:b1:9e:f1, 2015-01-01 01:03:10.405, -0.198, 0.856, 0.505, 6.165, 10.254, 3.662, 52.778, 8.438, 23.005, -12.080, -81.380, -162.980, 23.75, -0.87912, -0.42938, -0.15161, -0.14032,
 08:17:08.234,f7:68:33:b1:9e:f1, 2015-01-01 01:03:10.405, -0.198, 0.856, 0.505, 6.165, 10.254, 3.662, 52.822, 8.459, 23.06, -12.080, -81.380, -162.980, 23.75, -0.87912, -0.42938, -0.15161, -0.14032,
 08:17:08.234,f7:68:33:b1:9e:f1, 2015-01-01 01:03:10.405, -0.198, 0.856, 0.505, 6.165, 10.254, 3.662, 52.866, 8.476, 23.115, -12.080, -81.380, -162.980, 23.75, -0.87912, -0.42938, -0.15161, -0.14032,
 08:17:08.234,f7:68:33:b1:9e:f1, 2015-01-01 01:03:10.405, -0.192, 0.856, 0.505, 6.165, 10.254, 3.662, 52.91, 8.498, 23.165, -12.080, -81.380, -162.980, 23.75, -0.87912, -0.42938, -0.15161, -0.14032,
 08:17:08.246,d6:24:01:31:b7:6e, 2015-01-01 00:58:55.080, -0.114, 0.963, 0.338, 4.272, 2.869, 0.61, 69.23, 5.043, -73.872, -14.333, -41.553, -22.160, 25.66, 0.64319, 0.47153, -0.31085, -0.51697,
 08:17:08.262,f7:68:33:b1:9e:f1, 2015-01-01 01:03:10.405, -0.192, 0.874, 0.511, 8.24, 14.404, 6.47, 52.965, 8.514, 23.247, -12.080, -81.380, -162.980, 23.75, -0.87912, -0.42938, -0.15161, -0.14032,
 08:17:08.262,f7:68:33:b1:9e:f1, 2015-01-01 01:03:10.405, -0.192, 0.874, 0.511, 8.24, 14.404, 6.47, 53.026, 8.536, 23.324, -12.080, -81.380, -162.980, 23.75, -0.87912, -0.42938, -0.15161, -0.14032,
 08:17:08.262,f7:68:33:b1:9e:f1, 2015-01-01 01:03:10.405, -0.192, 0.874, 0.511, 8.24, 14.404, 6.47, 53.086, 8.553, 23.401, -12.080, -81.380, -162.980, 23.75, -0.87912, -0.42938, -0.15161, -0.14032,
 08:17:08.262,f7:68:33:b1:9e:f1, 2015-01-01 01:03:10.405, -0.182, 0.874, 0.511, 8.24, 14.404, 6.47, 53.141, 8.575, 23.478, -12.080, -81.380, -162.980, 23.75, -0.87912, -0.42938, -0.15161, -0.14032,
 08:17:08.262,f7:68:33:b1:9e:f1, 2015-01-01 01:03:10.405, -0.182, 0.895, 0.542, 7.507, 18.066, 8.972, 53.201, 8.591, 23.582, -12.080, -81.380, -162.980, 23.75, -0.87912, -0.42938, -0.15161, -0.14032,
 08:17:08.262,f7:68:33:b1:9e:f1, 2015-01-01 01:03:10.405, -0.182, 0.895, 0.542, 7.507, 18.066, 8.972, 53.262, 8.613, 23.681, -12.080, -81.380, -162.980, 23.75, -0.87912, -0.42938, -0.15161, -0.14032,
 08:17:08.262,f7:68:33:b1:9e:f1, 2015-01-01 01:03:10.405, -0.182, 0.895, 0.542, 7.507, 18.066, 8.972, 53.322, 8.63, 23.78, -12.080, -81.380, -162.980, 23.75, -0.87912, -0.42938, -0.15161, -0.14032,
 08:17:08.262,f7:68:33:b1:9e:f1, 2015-01-01 01:03:10.405, -0.17, 0.895, 0.542, 7.507, 18.066, 8.972, 53.383, 8.646, 23.884, -12.080, -81.380, -162.980, 23.75, -0.87912, -0.42938, -0.15161, -0.14032,
 08:17:08.294,f7:68:33:b1:9e:f1, 2015-01-01 01:03:10.405, -0.17, 0.914, 0.566, 8.667, 18.677, 13.062, 53.448, 8.652, 24, -12.080, -81.380, -162.980, 23.75, -0.87912, -0.42938, -0.15161, -0.14032,
 08:17:08.294,f7:68:33:b1:9e:f1, 2015-01-01 01:03:10.405, -0.17, 0.914, 0.566, 8.667, 18.677, 13.062, 53.514, 8.657, 24.115, -12.080, -81.380, -162.980, 23.75, -0.87912, -0.42938, -0.15161, -0.14032,
 08:17:08.294,f7:68:33:b1:9e:f1, 2015-01-01 01:03:10.405, -0.17, 0.914, 0.566, 8.667, 18.677, 13.062, 53.58, 8.657, 24.23, -12.080, -81.380, -162.980, 23.75, -0.87912, -0.42938, -0.15161, -0.14032,
 08:17:08.294,f7:68:33:b1:9e:f1, 2015-01-01 01:03:10.405, -0.155, 0.914, 0.566, 8.667, 18.677, 13.062, 53.646, 8.663, 24.346, -12.080, -81.380, -162.980, 23.75, -0.87912, -0.42938, -0.15161, -0.14032,
 08:17:08.294,f7:68:33:b1:9e:f1, 2015-01-01 01:03:10.405, -0.155, 0.901, 0.581, 7.385, 17.517, 17.029, 53.712, 8.641, 24.467, -12.080, -81.380, -162.980, 23.75, -0.87912, -0.42938, -0.15161, -0.14032,
 08:17:08.294,f7:68:33:b1:9e:f1, 2015-01-01 01:03:10.405, -0.155, 0.901, 0.581, 7.385, 17.517, 17.029, 53.773, 8.624, 24.587, -12.080, -81.380, -162.980, 23.75, -0.87912, -0.42938, -0.15161, -0.14032,
 08:17:08.294,f7:68:33:b1:9e:f1, 2015-01-01 01:03:10.405, -0.155, 0.901, 0.581, 7.385, 17.517, 17.029, 53.833, 8.608, 24.708, -12.080, -81.380, -162.980, 23.75, -0.87912, -0.42938, -0.15161, -0.14032,
 08:17:08.294,f7:68:33:b1:9e:f1, 2015-01-01 01:03:10.405, -0.142, 0.901, 0.581, 7.385, 17.517, 17.029, 53.893, 8.591, 24.829, -12.080, -81.380, -162.980, 23.75, -0.87912, -0.42938, -0.15161, -0.14032,
 08:17:08.306,d6:24:01:31:b7:6e, 2015-01-01 00:58:55.080, -0.065, 0.975, 0.275, 7.568, 12.207, 2.319, 69.95, 5.125, -73.152, -13.560, -42.380, -20.247, 25.66, 0.64319, 0.47153, -0.31085, -0.51697,
 08:17:08.354,f7:68:33:b1:9e:f1, 2015-01-01 01:03:10.405, -0.142, 0.885, 0.597, 8.301, 14.893, 17.761, 53.954, 8.558, 24.944, -12.080, -81.380, -162.980, 23.75, -0.87912, -0.42938, -0.15161, -0.14032,
 08:17:08.354,f7:68:33:b1:9e:f1, 2015-01-01 01:03:10.405, -0.142, 0.885, 0.597, 8.301, 14.893, 17.761, 54.02, 8.531, 25.054, -12.080, -81.380, -162.980, 23.75, -0.87912, -0.42938, -0.15161, -0.14032,
 08:17:08.354,f7:68:33:b1:9e:f1, 2015-01-01 01:03:10.405, -0.142, 0.885, 0.597, 8.301, 14.893, 17.761, 54.08, 8.498, 25.17, -12.080, -81.380, -162.980, 23.75, -0.87912, -0.42938, -0.15161, -0.14032,
 08:17:08.354,f7:68:33:b1:9e:f1, 2015-01-01 01:03:10.405, -0.142, 0.885, 0.597, 8.301, 14.893, 17.761, 54.146, 8.47, 25.285, -12.080, -81.380, -162.980, 23.75, -0.87912, -0.42938, -0.15161, -0.14032,
 08:17:08.354,f7:68:33:b1:9e:f1, 2015-01-01 01:03:10.405, -0.142, 0.904, 0.608, 7.202, 10.193, 19.226, 54.196, 8.421, 25.378, -12.080, -81.380, -162.980, 23.75, -0.87912, -0.42938, -0.15161, -0.14032,
 08:17:08.354,f7:68:33:b1:9e:f1, 2015-01-01 01:03:10.405, -0.142, 0.904, 0.608, 7.202, 10.193, 19.226, 54.25, 8.372, 25.477, -12.080, -81.380, -162.980, 23.75, -0.87912, -0.42938, -0.15161, -0.14032,
 08:17:08.354,f7:68:33:b1:9e:f1, 2015-01-01 01:03:10.405, -0.142, 0.904, 0.608, 7.202, 10.193, 19.226, 54.305, 8.322, 25.576, -12.080, -81.380, -162.980, 23.75, -0.87912, -0.42938, -0.15161, -0.14032,
 08:17:08.354,f7:68:33:b1:9e:f1, 2015-01-01 01:03:10.405, -0.145, 0.904, 0.608, 7.202, 10.193, 19.226, 54.355, 8.273, 25.67, -12.080, -81.380, -162.980, 23.75, -0.87912, -0.42938, -0.15161, -0.14032,
 08:17:08.384,f7:68:33:b1:9e:f1, 2015-01-01 01:03:10.405, -0.145, 0.921, 0.595, 4.517, 5.31, 23.376, 54.393, 8.19, 25.757, -10.853, -82.980, -161.127, 23.75, -0.87912, -0.42938, -0.15161, -0.14032,
 08:17:08.384,f7:68:33:b1:9e:f1, 2015-01-01 01:03:10.405, -0.145, 0.921, 0.595, 4.517, 5.31, 23.376, 54.432, 8.108, 25.845, -10.853, -82.980, -161.127, 23.75, -0.87912, -0.42938, -0.15161, -0.14032,
 08:17:08.384,f7:68:33:b1:9e:f1, 2015-01-01 01:03:10.405, -0.145, 0.921, 0.595, 4.517, 5.31, 23.376, 54.47, 8.026, 25.933, -10.853, -82.980, -161.127, 23.75, -0.87912, -0.42938, -0.15161, -0.14032,
 08:17:08.384,f7:68:33:b1:9e:f1, 2015-01-01 01:03:10.405, -0.143, 0.921, 0.595, 4.517, 5.31, 23.376, 54.503, 7.949, 26.021, -10.853, -82.980, -161.127, 23.75, -0.87912, -0.42938, -0.15161, -0.14032,
 08:17:08.384,f7:68:33:b1:9e:f1, 2015-01-01 01:03:10.405, -0.143, 0.935, 0.585, 1.221, 2.136, 29.175, 54.525, 7.833, 26.115, -10.853, -82.980, -161.127, 23.75, -0.87912, -0.42938, -0.15161, -0.14032,
 08:17:08.384,f7:68:33:b1:9e:f1, 2015-01-01 01:03:10.405, -0.143, 0.935, 0.585, 1.221, 2.136, 29.175, 54.547, 7.718, 26.202, -10.853, -82.980, -161.127, 23.75, -0.87912, -0.42938, -0.15161, -0.14032,
 08:17:08.384,f7:68:33:b1:9e:f1, 2015-01-01 01:03:10.405, -0.143, 0.935, 0.585, 1.221, 2.136, 29.175, 54.569, 7.603, 26.296, -10.853, -82.980, -161.127, 23.75, -0.87912, -0.42938, -0.15161, -0.14032,
 08:17:08.384,f7:68:33:b1:9e:f1, 2015-01-01 01:03:10.405, -0.125, 0.935, 0.585, 1.221, 2.136, 29.175, 54.586, 7.493, 26.384, -10.853, -82.980, -161.127, 23.75, -0.87912, -0.42938, -0.15161, -0.14032,
 08:17:08.413,f7:68:33:b1:9e:f1, 2015-01-01 01:03:10.405, -0.125, 0.923, 0.595, -1.16, 0.793, 33.081, 54.597, 7.361, 26.477, -10.853, -82.980, -161.127, 23.75, -0.87912, -0.42938, -0.15161, -0.14032,
 08:17:08.413,f7:68:33:b1:9e:f1, 2015-01-01 01:03:10.405, -0.125, 0.923, 0.595, -1.16, 0.793, 33.081, 54.608, 7.224, 26.576, -10.853, -82.980, -161.127, 23.75, -0.87912, -0.42938, -0.15161, -0.14032,
 08:17:08.413,f7:68:33:b1:9e:f1, 2015-01-01 01:03:10.405, -0.125, 0.923, 0.595, -1.16, 0.793, 33.081, 54.613, 7.092, 26.669, -10.853, -82.980, -161.127, 23.75, -0.87912, -0.42938, -0.15161, -0.14032,
 08:17:08.413,f7:68:33:b1:9e:f1, 2015-01-01 01:03:10.405, -0.11, 0.923, 0.595, -1.16, 0.793, 33.081, 54.624, 6.96, 26.768, -10.853, -82.980, -161.127, 23.75, -0.87912, -0.42938, -0.15161, -0.14032,
 08:17:08.413,f7:68:33:b1:9e:f1, 2015-01-01 01:03:10.405, -0.11, 0.929, 0.616, 2.319, 0.244, 34.546, 54.646, 6.817, 26.862, -10.853, -82.980, -161.127, 23.75, -0.87912, -0.42938, -0.15161, -0.14032,
 08:17:08.413,f7:68:33:b1:9e:f1, 2015-01-01 01:03:10.405, -0.11, 0.929, 0.616, 2.319, 0.244, 34.546, 54.673, 6.68, 26.96, -10.853, -82.980, -161.127, 23.75, -0.87912, -0.42938, -0.15161, -0.14032,
 08:17:08.413,f7:68:33:b1:9e:f1, 2015-01-01 01:03:10.405, -0.11, 0.929, 0.616, 2.319, 0.244, 34.546, 54.701, 6.537, 27.059, -10.853, -82.980, -161.127, 23.75, -0.87912, -0.42938, -0.15161, -0.14032,
 08:17:08.413,f7:68:33:b1:9e:f1, 2015-01-01 01:03:10.405, -0.09, 0.929, 0.616, 2.319, 0.244, 34.546, 54.723, 6.4, 27.153, -10.853, -82.980, -161.127, 23.75, -0.87912, -0.42938, -0.15161, -0.14032,
 08:17:08.458,d6:24:01:31:b7:6e, 2015-01-01 00:58:55.080, -0.027, 1.014, 0.331, 8.667, 17.029, 14.648, 71.147, 4.993, -71.049, -13.560, -42.380, -20.247, 25.66, 0.64731, 0.49426, -0.30905, -0.49097,
 08:17:08.473,f7:68:33:b1:9e:f1, 2015-01-01 01:03:10.405, -0.09, 0.923, 0.648, 2.991, -3.601, 36.316, 54.75, 6.24, 27.241, -10.853, -82.980, -161.127, 23.75, -0.86227, -0.4465, -0.16251, -0.17496,
 08:17:08.473,f7:68:33:b1:9e:f1, 2015-01-01 01:03:10.405, -0.09, 0.923, 0.648, 2.991, -3.601, 36.316, 54.772, 6.081, 27.323, -10.853, -82.980, -161.127, 23.75, -0.86227, -0.4465, -0.16251, -0.17496,
 08:17:08.473,f7:68:33:b1:9e:f1, 2015-01-01 01:03:10.405, -0.09, 0.923, 0.648, 2.991, -3.601, 36.316, 54.8, 5.922, 27.411, -10.853, -82.980, -161.127, 23.75, -0.86227, -0.4465, -0.16251, -0.17496,
 08:17:08.473,f7:68:33:b1:9e:f1, 2015-01-01 01:03:10.405, -0.073, 0.923, 0.648, 2.991, -3.601, 36.316, 54.822, 5.762, 27.493, -10.853, -82.980, -161.127, 23.75, -0.86227, -0.4465, -0.16251, -0.17496,
 08:17:08.473,f7:68:33:b1:9e:f1, 2015-01-01 01:03:10.405, -0.073, 0.905, 0.668, 3.54, -11.169, 36.133, 54.844, 5.587, 27.548, -10.853, -82.980, -161.127, 23.75, -0.86227, -0.4465, -0.16251, -0.17496,
 08:17:08.473,f7:68:33:b1:9e:f1, 2015-01-01 01:03:10.405, -0.073, 0.905, 0.668, 3.54, -11.169, 36.133, 54.866, 5.405, 27.603, -10.853, -82.980, -161.127, 23.75, -0.86227, -0.4465, -0.16251, -0.17496,
 08:17:08.473,f7:68:33:b1:9e:f1, 2015-01-01 01:03:10.405, -0.073, 0.905, 0.668, 3.54, -11.169, 36.133, 54.888, 5.229, 27.653, -10.853, -82.980, -161.127, 23.75, -0.86227, -0.4465, -0.16251, -0.17496,
 08:17:08.473,f7:68:33:b1:9e:f1, 2015-01-01 01:03:10.405, -0.075, 0.905, 0.668, 3.54, -11.169, 36.133, 54.91, 5.048, 27.708, -10.853, -82.980, -161.127, 23.75, -0.86227, -0.4465, -0.16251, -0.17496,
 08:17:08.503,f7:68:33:b1:9e:f1, 2015-01-01 01:03:10.760, -0.075, 0.898, 0.646, 1.892, -21.606, 37.476, 54.915, 4.839, 27.719, -10.853, -82.980, -161.127, 23.75, -0.86227, -0.4465, -0.16251, -0.17496,
 08:17:08.503,f7:68:33:b1:9e:f1, 2015-01-01 01:03:10.760, -0.075, 0.898, 0.646, 1.892, -21.606, 37.476, 54.926, 4.625, 27.729, -10.853, -82.980, -161.127, 23.75, -0.86227, -0.4465, -0.16251, -0.17496,
 08:17:08.503,f7:68:33:b1:9e:f1, 2015-01-01 01:03:10.760, -0.075, 0.898, 0.646, 1.892, -21.606, 37.476, 54.932, 4.417, 27.746, -10.853, -82.980, -161.127, 23.75, -0.86227, -0.4465, -0.16251, -0.17496,
 08:17:08.503,f7:68:33:b1:9e:f1, 2015-01-01 01:03:10.760, -0.188, 0.898, 0.646, 1.892, -21.606, 37.476, 54.937, 4.202, 27.757, -10.853, -82.980, -161.127, 23.75, -0.86227, -0.4465, -0.16251, -0.17496,
 08:17:08.503,f7:68:33:b1:9e:f1, 2015-01-01 01:03:10.760, -0.188, 0.852, 0.12, -72.449, -79.651, -162.659, 54.514, 4.664, 26.971, -10.853, -82.980, -161.127, 23.75, -0.86227, -0.4465, -0.16251, -0.17496,
 08:17:08.503,f7:68:33:b1:9e:f1, 2015-01-01 01:03:10.760, -0.188, 0.852, 0.12, -72.449, -79.651, -162.659, 54.086, 5.125, 26.186, -10.853, -82.980, -161.127, 23.75, -0.86227, -0.4465, -0.16251, -0.17496,
 08:17:08.503,f7:68:33:b1:9e:f1, 2015-01-01 01:03:10.760, -0.188, 0.852, 0.12, -72.449, -79.651, -162.659, 53.657, 5.576, 25.395, -10.853, -82.980, -161.127, 23.75, -0.86227, -0.4465, -0.16251, -0.17496,
 08:17:08.503,f7:68:33:b1:9e:f1, 2015-01-01 01:03:10.760, -0.405, 0.852, 0.12, -72.449, -79.651, -162.659, 53.229, 6.015, 24.598, -10.853, -82.980, -161.127, 23.75, -0.86227, -0.4465, -0.16251, -0.17496,
 08:17:08.516,d6:24:01:31:b7:6e, 2015-01-01 00:58:55.500, -0.134, 1.058, 0.351, 0.488, 9.705, 33.203, 71.576, 2.911, -69.252, -13.560, -42.380, -20.247, 25.66, 0.64731, 0.49426, -0.30905, -0.49097,
 08:17:08.533,f7:68:33:b1:9e:f1, 2015-01-01 01:03:10.760, -0.405, 0.963, 0.61, 74.524, 80.811, 110.413, 53.679, 5.801, 25.252, -10.853, -82.980, -161.127, 23.75, -0.86227, -0.4465, -0.16251, -0.17496,
 08:17:08.533,f7:68:33:b1:9e:f1, 2015-01-01 01:03:10.760, -0.405, 0.963, 0.61, 74.524, 80.811, 110.413, 54.13, 5.576, 25.9, -10.853, -82.980, -161.127, 23.75, -0.86227, -0.4465, -0.16251, -0.17496,
 08:17:08.533,f7:68:33:b1:9e:f1, 2015-01-01 01:03:10.760, -0.405, 0.963, 0.61, 74.524, 80.811, 110.413, 54.575, 5.356, 26.543, -10.853, -82.980, -161.127, 23.75, -0.86227, -0.4465, -0.16251, -0.17496,
 08:17:08.533,f7:68:33:b1:9e:f1, 2015-01-01 01:03:10.760, 0.096, 0.963, 0.61, 74.524, 80.811, 110.413, 55.014, 5.131, 27.186, -10.853, -82.980, -161.127, 23.75, -0.86227, -0.4465, -0.16251, -0.17496,
 08:17:08.533,f7:68:33:b1:9e:f1, 2015-01-01 01:03:10.760, 0.096, 0.97, 0.47, -35.767, 1.587, -3.723, 54.844, 5.158, 27.186, -10.853, -82.980, -161.127, 23.75, -0.86227, -0.4465, -0.16251, -0.17496,
 08:17:08.533,f7:68:33:b1:9e:f1, 2015-01-01 01:03:10.760, 0.096, 0.97, 0.47, -35.767, 1.587, -3.723, 54.673, 5.186, 27.18, -10.853, -82.980, -161.127, 23.75, -0.86227, -0.4465, -0.16251, -0.17496,
 08:17:08.533,f7:68:33:b1:9e:f1, 2015-01-01 01:03:10.760, 0.096, 0.97, 0.47, -35.767, 1.587, -3.723, 54.509, 5.213, 27.175, -10.853, -82.980, -161.127, 23.75, -0.86227, -0.4465, -0.16251, -0.17496,
 08:17:08.533,f7:68:33:b1:9e:f1, 2015-01-01 01:03:10.760, -0.126, 0.97, 0.47, -35.767, 1.587, -3.723, 54.338, 5.24, 27.175, -10.853, -82.980, -161.127, 23.75, -0.86227, -0.4465, -0.16251, -0.17496,
 08:17:08.593,f7:68:33:b1:9e:f1, 2015-01-01 01:03:10.760, -0.126, 0.872, 0.947, 14.099, -4.822, 109.375, 54.443, 4.779, 27.46, -10.853, -82.980, -161.127, 23.75, -0.86227, -0.4465, -0.16251, -0.17496,
 08:17:08.593,f7:68:33:b1:9e:f1, 2015-01-01 01:03:10.760, -0.126, 0.872, 0.947, 14.099, -4.822, 109.375, 54.542, 4.312, 27.74, -10.853, -82.980, -161.127, 23.75, -0.86227, -0.4465, -0.16251, -0.17496,
 08:17:08.593,f7:68:33:b1:9e:f1, 2015-01-01 01:03:10.760, -0.126, 0.872, 0.947, 14.099, -4.822, 109.375, 54.635, 3.856, 28.026, -10.853, -82.980, -161.127, 23.75, -0.86227, -0.4465, -0.16251, -0.17496,
 08:17:08.593,f7:68:33:b1:9e:f1, 2015-01-01 01:03:10.760, -0.008, 0.872, 0.947, 14.099, -4.822, 109.375, 54.728, 3.395, 28.306, -10.853, -82.980, -161.127, 23.75, -0.86227, -0.4465, -0.16251, -0.17496,
 08:17:08.593,f7:68:33:b1:9e:f1, 2015-01-01 01:03:10.760, -0.008, 0.979, 0.788, -36.438, -55.969, 57.739, 54.536, 3.01, 28.235, -10.853, -82.980, -161.127, 23.75, -0.86227, -0.4465, -0.16251, -0.17496,
 08:17:08.593,f7:68:33:b1:9e:f1, 2015-01-01 01:03:10.760, -0.008, 0.979, 0.788, -36.438, -55.969, 57.739, 54.349, 2.62, 28.163, -10.853, -82.980, -161.127, 23.75, -0.86227, -0.4465, -0.16251, -0.17496,
 08:17:08.593,f7:68:33:b1:9e:f1, 2015-01-01 01:03:10.760, -0.008, 0.979, 0.788, -36.438, -55.969, 57.739, 54.163, 2.236, 28.092, -10.853, -82.980, -161.127, 23.75, -0.86227, -0.4465, -0.16251, -0.17496,
 08:17:08.593,f7:68:33:b1:9e:f1, 2015-01-01 01:03:10.760, 0.052, 0.979, 0.788, -36.438, -55.969, 57.739, 53.976, 1.851, 28.021, -10.853, -82.980, -161.127, 23.75, -0.86227, -0.4465, -0.16251, -0.17496,
 08:17:08.623,f7:68:33:b1:9e:f1, 2015-01-01 01:03:10.760, 0.052, 0.901, 0.786, -26.428, -57.373, 40.1, 53.839, 1.533, 27.894, -10.853, -82.980, -161.127, 23.75, -0.86227, -0.4465, -0.16251, -0.17496,
 08:17:08.623,f7:68:33:b1:9e:f1, 2015-01-01 01:03:10.760, 0.052, 0.901, 0.786, -26.428, -57.373, 40.1, 53.701, 1.214, 27.773, -10.853, -82.980, -161.127, 23.75, -0.86227, -0.4465, -0.16251, -0.17496,
 08:17:08.623,f7:68:33:b1:9e:f1, 2015-01-01 01:03:10.760, 0.052, 0.901, 0.786, -26.428, -57.373, 40.1, 53.564, 0.895, 27.653, -10.853, -82.980, -161.127, 23.75, -0.86227, -0.4465, -0.16251, -0.17496,
 08:17:08.623,f7:68:33:b1:9e:f1, 2015-01-01 01:03:10.760, 0.074, 0.901, 0.786, -26.428, -57.373, 40.1, 53.427, 0.577, 27.526, -10.853, -82.980, -161.127, 23.75, -0.86227, -0.4465, -0.16251, -0.17496,
 08:17:08.623,f7:68:33:b1:9e:f1, 2015-01-01 01:03:10.760, 0.074, 0.889, 0.716, -40.1, -84.534, 47.546, 53.223, 0.148, 27.318, -10.853, -82.980, -161.127, 23.75, -0.86227, -0.4465, -0.16251, -0.17496,
 08:17:08.623,f7:68:33:b1:9e:f1, 2015-01-01 01:03:10.760, 0.074, 0.889, 0.716, -40.1, -84.534, 47.546, 53.015, -0.275, 27.109, -10.853, -82.980, -161.127, 23.75, -0.86227, -0.4465, -0.16251, -0.17496,
 08:17:08.623,f7:68:33:b1:9e:f1, 2015-01-01 01:03:10.760, 0.074, 0.889, 0.716, -40.1, -84.534, 47.546, 52.817, -0.698, 26.9, -10.853, -82.980, -161.127, 23.75, -0.86227, -0.4465, -0.16251, -0.17496,
 08:17:08.623,f7:68:33:b1:9e:f1, 2015-01-01 01:03:10.760, 0.127, 0.889, 0.716, -40.1, -84.534, 47.546, 52.614, -1.126, 26.697, -10.853, -82.980, -161.127, 23.75, -0.86227, -0.4465, -0.16251, -0.17496,
 08:17:08.637,d6:24:01:31:b7:6e, 2015-01-01 00:58:55.500, 0.17, 1.191, 0.164, 39.734, 26.184, 45.349, 71.636, -0.736, -67.451, -13.560, -42.380, -20.247, 25.66, 0.64731, 0.49426, -0.30905, -0.49097,
 08:17:08.653,f7:68:33:b1:9e:f1, 2015-01-01 01:03:10.760, 0.127, 0.618, 0.573, -7.568, -78.43, 28.931, 52.575, -1.467, 26.461, -10.853, -82.980, -161.127, 23.75, -0.86227, -0.4465, -0.16251, -0.17496,
 08:17:08.653,f7:68:33:b1:9e:f1, 2015-01-01 01:03:10.760, 0.127, 0.618, 0.573, -7.568, -78.43, 28.931, 52.542, -1.802, 26.224, -10.853, -82.980, -161.127, 23.75, -0.86227, -0.4465, -0.16251, -0.17496,
 08:17:08.653,f7:68:33:b1:9e:f1, 2015-01-01 01:03:10.760, 0.127, 0.618, 0.573, -7.568, -78.43, 28.931, 52.504, -2.137, 25.994, -10.853, -82.980, -161.127, 23.75, -0.86227, -0.4465, -0.16251, -0.17496,
 08:17:08.653,f7:68:33:b1:9e:f1, 2015-01-01 01:03:10.760, 0.138, 0.618, 0.573, -7.568, -78.43, 28.931, 52.471, -2.472, 25.757, -10.853, -82.980, -161.127, 23.75, -0.86227, -0.4465, -0.16251, -0.17496,
 08:17:08.653,f7:68:33:b1:9e:f1, 2015-01-01 01:03:10.760, 0.138, 0.632, 0.513, 9.216, -60.303, 8.85, 52.52, -2.675, 25.538, -10.853, -82.980, -161.127, 23.75, -0.86227, -0.4465, -0.16251, -0.17496,
 08:17:08.653,f7:68:33:b1:9e:f1, 2015-01-01 01:03:10.760, 0.138, 0.632, 0.513, 9.216, -60.303, 8.85, 52.57, -2.878, 25.318, -10.853, -82.980, -161.127, 23.75, -0.86227, -0.4465, -0.16251, -0.17496,
 08:17:08.653,f7:68:33:b1:9e:f1, 2015-01-01 01:03:10.760, 0.138, 0.632, 0.513, 9.216, -60.303, 8.85, 52.625, -3.082, 25.098, -10.853, -82.980, -161.127, 23.75, -0.86227, -0.4465, -0.16251, -0.17496,
 08:17:08.653,f7:68:33:b1:9e:f1, 2015-01-01 01:03:10.760, 0.185, 0.632, 0.513, 9.216, -60.303, 8.85, 52.674, -3.29, 24.879, -10.853, -82.980, -161.127, 23.75, -0.86227, -0.4465, -0.16251, -0.17496,
 08:17:08.714,f7:68:33:b1:9e:f1, 2015-01-01 01:03:10.760, 0.185, 0.665, 0.591, 42.969, -55.176, -6.775, 52.894, -3.411, 24.637, -10.853, -82.980, -161.127, 23.75, -0.86227, -0.4465, -0.16251, -0.17496,
 08:17:08.714,f7:68:33:b1:9e:f1, 2015-01-01 01:03:10.760, 0.185, 0.665, 0.591, 42.969, -55.176, -6.775, 53.113, -3.538, 24.39, -10.853, -82.980, -161.127, 23.75, -0.86227, -0.4465, -0.16251, -0.17496,
 08:17:08.714,f7:68:33:b1:9e:f1, 2015-01-01 01:03:10.760, 0.17, 0.665, 0.591, 42.969, -55.176, -6.775, 53.333, -3.664, 24.148, -10.853, -82.980, -161.127, 23.75, -0.86227, -0.4465, -0.16251, -0.17496,
 08:17:08.714,f7:68:33:b1:9e:f1, 2015-01-01 01:03:10.760, 0.17, 0.779, 0.604, 46.875, -50.903, -9.338, 53.575, -3.768, 23.912, -10.853, -82.980, -161.127, 23.75, -0.86227, -0.4465, -0.16251, -0.17496,
 08:17:08.714,f7:68:33:b1:9e:f1, 2015-01-01 01:03:10.760, 0.17, 0.779, 0.604, 46.875, -50.903, -9.338, 53.811, -3.873, 23.676, -10.853, -82.980, -161.127, 23.75, -0.86227, -0.4465, -0.16251, -0.17496,
 08:17:08.714,f7:68:33:b1:9e:f1, 2015-01-01 01:03:10.760, 0.17, 0.779, 0.604, 46.875, -50.903, -9.338, 54.047, -3.977, 23.439, -10.853, -82.980, -161.127, 23.75, -0.86227, -0.4465, -0.16251, -0.17496,
 08:17:08.714,f7:68:33:b1:9e:f1, 2015-01-01 01:03:10.760, 0.162, 0.779, 0.604, 46.875, -50.903, -9.338, 54.289, -4.076, 23.198, -10.853, -82.980, -161.127, 23.75, -0.86227, -0.4465, -0.16251, -0.17496,
 08:17:08.714,f7:68:33:b1:9e:f1, 2015-01-01 01:03:10.760, 0.162, 0.818, 0.619, 32.776, -53.406, -13.123, 54.454, -4.169, 22.939, -10.853, -82.980, -161.127, 23.75, -0.86227, -0.4465, -0.16251, -0.17496,
 08:17:08.728,d6:24:01:31:b7:6e, 2015-01-01 00:58:55.500, 0.274, 0.97, 0.446, -24.109, -57.556, 68.115, 69.922, -6.35, -68.049, -24.780, -42.453, -19.393, 25.66, 0.64731, 0.49426, -0.30905, -0.49097,
 08:17:08.744,f7:68:33:b1:9e:f1, 2015-01-01 01:03:10.760, 0.162, 0.818, 0.619, 32.776, -53.406, -13.123, 54.624, -4.263, 22.681, -22.420, -82.613, -161.280, 23.75, -0.86227, -0.4465, -0.16251, -0.17496,
 08:17:08.744,f7:68:33:b1:9e:f1, 2015-01-01 01:03:10.760, 0.162, 0.818, 0.619, 32.776, -53.406, -13.123, 54.794, -4.356, 22.423, -22.420, -82.613, -161.280, 23.75, -0.86227, -0.4465, -0.16251, -0.17496,
 08:17:08.744,f7:68:33:b1:9e:f1, 2015-01-01 01:03:10.760, 0.257, 0.818, 0.619, 32.776, -53.406, -13.123, 54.965, -4.449, 22.165, -22.420, -82.613, -161.280, 23.75, -0.86227, -0.4465, -0.16251, -0.17496,
 08:17:08.744,f7:68:33:b1:9e:f1, 2015-01-01 01:03:10.760, 0.257, 0.986, 0.578, 27.1, -48.096, 2.075, 55.102, -4.592, 21.967, -22.420, -82.613, -161.280, 23.75, -0.86227, -0.4465, -0.16251, -0.17496,
 08:17:08.744,f7:68:33:b1:9e:f1, 2015-01-01 01:03:10.760, 0.257, 0.986, 0.578, 27.1, -48.096, 2.075, 55.239, -4.735, 21.775, -22.420, -82.613, -161.280, 23.75, -0.86227, -0.4465, -0.16251, -0.17496,
 08:17:08.744,f7:68:33:b1:9e:f1, 2015-01-01 01:03:10.760, 0.257, 0.986, 0.578, 27.1, -48.096, 2.075, 55.377, -4.878, 21.577, -22.420, -82.613, -161.280, 23.75, -0.86227, -0.4465, -0.16251, -0.17496,
 08:17:08.744,f7:68:33:b1:9e:f1, 2015-01-01 01:03:10.760, 0, 0.986, 0.578, 27.1, -48.096, 2.075, 55.519, -5.021, 21.379, -22.420, -82.613, -161.280, 23.75, -0.86227, -0.4465, -0.16251, -0.17496,
 08:17:08.744,f7:68:33:b1:9e:f1, 2015-01-01 01:03:10.760, 0, 1.148, 0.58, 67.627, -73.853, 43.762, 55.865, -5.405, 21.187, -22.420, -82.613, -161.280, 23.75, -0.86227, -0.4465, -0.16251, -0.17496,
 08:17:08.773,f7:68:33:b1:9e:f1, 2015-01-01 01:03:10.760, 0, 1.148, 0.58, 67.627, -73.853, 43.762, 56.212, -5.784, 20.989, -22.420, -82.613, -161.280, 23.75, -0.86227, -0.4465, -0.16251, -0.17496,
 08:17:08.773,f7:68:33:b1:9e:f1, 2015-01-01 01:03:10.760, 0, 1.148, 0.58, 67.627, -73.853, 43.762, 56.558, -6.163, 20.792, -22.420, -82.613, -161.280, 23.75, -0.86227, -0.4465, -0.16251, -0.17496,
 08:17:08.773,f7:68:33:b1:9e:f1, 2015-01-01 01:03:10.760, 0.141, 1.148, 0.58, 67.627, -73.853, 43.762, 56.909, -6.537, 20.588, -22.420, -82.613, -161.280, 23.75, -0.86227, -0.4465, -0.16251, -0.17496,
 08:17:08.773,f7:68:33:b1:9e:f1, 2015-01-01 01:03:10.760, 0.141, 1.035, 0.718, 71.838, -96.802, 69.031, 57.288, -7.081, 20.352, -22.420, -82.613, -161.280, 23.75, -0.86227, -0.4465, -0.16251, -0.17496,
 08:17:08.773,f7:68:33:b1:9e:f1, 2015-01-01 01:03:10.760, 0.141, 1.035, 0.718, 71.838, -96.802, 69.031, 57.667, -7.614, 20.11, -22.420, -82.613, -161.280, 23.75, -0.86227, -0.4465, -0.16251, -0.17496,
 08:17:08.773,f7:68:33:b1:9e:f1, 2015-01-01 01:03:10.760, 0.141, 1.035, 0.718, 71.838, -96.802, 69.031, 58.046, -8.146, 19.869, -22.420, -82.613, -161.280, 23.75, -0.86227, -0.4465, -0.16251, -0.17496,
 08:17:08.773,f7:68:33:b1:9e:f1, 2015-01-01 01:03:10.760, 0.246, 1.035, 0.718, 71.838, -96.802, 69.031, 58.425, -8.679, 19.622, -22.420, -82.613, -161.280, 23.75, -0.86227, -0.4465, -0.16251, -0.17496,
 08:17:08.773,f7:68:33:b1:9e:f1, 2015-01-01 01:03:10.760, 0.246, 0.981, 0.774, 69.214, -140.747, 93.811, 58.815, -9.426, 19.237, -22.420, -82.613, -161.280, 23.75, -0.86227, -0.4465, -0.16251, -0.17496,
 08:17:08.834,f7:68:33:b1:9e:f1, 2015-01-01 01:03:10.760, 0.246, 0.981, 0.774, 69.214, -140.747, 93.811, 59.211, -10.162, 18.847, -22.420, -82.613, -161.280, 23.75, -0.84933, -0.49387, -0.03534, -0.18268,
 08:17:08.834,f7:68:33:b1:9e:f1, 2015-01-01 01:03:10.760, 0.246, 0.981, 0.774, 69.214, -140.747, 93.811, 59.606, -10.898, 18.452, -22.420, -82.613, -161.280, 23.75, -0.84933, -0.49387, -0.03534, -0.18268,
 08:17:08.834,f7:68:33:b1:9e:f1, 2015-01-01 01:03:10.760, 0.352, 0.981, 0.774, 69.214, -140.747, 93.811, 60.007, -11.635, 18.051, -22.420, -82.613, -161.280, 23.75, -0.84933, -0.49387, -0.03534, -0.18268,
 08:17:08.834,f7:68:33:b1:9e:f1, 2015-01-01 01:03:10.760, 0.352, 1.006, 0.701, 116.638, -164.856, 64.88, 60.688, -12.288, 17.463, -22.420, -82.613, -161.280, 23.75, -0.84933, -0.49387, -0.03534, -0.18268,
 08:17:08.834,f7:68:33:b1:9e:f1, 2015-01-01 01:03:10.760, 0.352, 1.006, 0.701, 116.638, -164.856, 64.88, 61.375, -12.936, 16.87, -22.420, -82.613, -161.280, 23.75, -0.84933, -0.49387, -0.03534, -0.18268,
 08:17:08.834,f7:68:33:b1:9e:f1, 2015-01-01 01:03:10.760, 0.352, 1.006, 0.701, 116.638, -164.856, 64.88, 62.073, -13.579, 16.265, -22.420, -82.613, -161.280, 23.75, -0.84933, -0.49387, -0.03534, -0.18268,
 08:17:08.834,f7:68:33:b1:9e:f1, 2015-01-01 01:03:10.760, 0.502, 1.006, 0.701, 116.638, -164.856, 64.88, 62.77, -14.211, 15.65, -22.420, -82.613, -161.280, 23.75, -0.84933, -0.49387, -0.03534, -0.18268,
 08:17:08.834,f7:68:33:b1:9e:f1, 2015-01-01 01:03:10.760, 1.004, 1.213, 0.609, 195.435, -104.919, 14.16, 63.831, -14.48, 15.194, -22.420, -82.613, -161.280, 23.75, -0.84933, -0.49387, -0.03534, -0.18268,
 08:17:08.847,d6:24:01:31:b7:6e, 2015-01-01 00:58:55.885, 0.304, 0.92, 0.383, 27.1, -57.922, 12.451, 72.048, -10.651, -73.564, -24.780, -42.453, -19.393, 25.66, 0.67032, 0.42068, -0.42471, -0.43951,
 08:17:08.864,f7:68:33:b1:9e:f1, 2015-01-01 01:03:11.120, 2.008, 2.426, 1.219, 195.435, -104.919, 14.16, 64.891, -14.744, 14.733, -22.420, -82.613, -161.280, 23.75, -0.84933, -0.49387, -0.03534, -0.18268,
 08:17:08.864,f7:68:33:b1:9e:f1, 2015-01-01 01:03:11.120, 4.017, 4.853, 2.438, 195.435, -104.919, 14.16, 65.956, -15.007, 14.266, -22.420, -82.613, -161.280, 23.75, -0.84933, -0.49387, -0.03534, -0.18268,
 08:17:08.864,f7:68:33:b1:9e:f1, 2015-01-01 01:03:11.120, 0.552, 9.705, 4.876, 195.435, -104.919, 14.16, 67.028, -15.266, 13.793, -22.420, -82.613, -161.280, 23.75, -0.84933, -0.49387, -0.03534, -0.18268,
 08:17:08.864,f7:68:33:b1:9e:f1, 2015-01-01 01:03:11.120, 0.552, 1.175, 0.939, 137.329, -49.866, -13.489, 67.753, -15.287, 13.53, -22.420, -82.613, -161.280, 23.75, -0.84933, -0.49387, -0.03534, -0.18268,
 08:17:08.864,f7:68:33:b1:9e:f1, 2015-01-01 01:03:11.120, 0.552, 1.175, 0.939, 137.329, -49.866, -13.489, 68.478, -15.309, 13.271, -22.420, -82.613, -161.280, 23.75, -0.84933, -0.49387, -0.03534, -0.18268,
 08:17:08.864,f7:68:33:b1:9e:f1, 2015-01-01 01:03:11.120, 0.552, 1.175, 0.939, 137.329, -49.866, -13.489, 69.192, -15.331, 13.008, -22.420, -82.613, -161.280, 23.75, -0.84933, -0.49387, -0.03534, -0.18268,
 08:17:08.864,f7:68:33:b1:9e:f1, 2015-01-01 01:03:11.120, 0.605, 1.175, 0.939, 137.329, -49.866, -13.489, 69.911, -15.348, 12.744, -22.420, -82.613, -161.280, 23.75, -0.84933, -0.49387, -0.03534, -0.18268,
 08:17:08.864,f7:68:33:b1:9e:f1, 2015-01-01 01:03:11.120, 0.605, 1.087, 0.987, 12.146, 41.016, -26.733, 69.884, -15.161, 12.909, -22.420, -82.613, -161.280, 23.75, -0.84933, -0.49387, -0.03534, -0.18268,
 08:17:08.892,f7:68:33:b1:9e:f1, 2015-01-01 01:03:11.120, 0.605, 1.087, 0.987, 12.146, 41.016, -26.733, 69.862, -14.974, 13.068, -22.420, -82.613, -161.280, 23.75, -0.84933, -0.49387, -0.03534, -0.18268,
 08:17:08.892,f7:68:33:b1:9e:f1, 2015-01-01 01:03:11.120, 0.605, 1.087, 0.987, 12.146, 41.016, -26.733, 69.84, -14.788, 13.228, -22.420, -82.613, -161.280, 23.75, -0.84933, -0.49387, -0.03534, -0.18268,
 08:17:08.892,f7:68:33:b1:9e:f1, 2015-01-01 01:03:11.120, 0.572, 1.087, 0.987, 12.146, 41.016, -26.733, 69.813, -14.606, 13.392, -22.420, -82.613, -161.280, 23.75, -0.84933, -0.49387, -0.03534, -0.18268,
 08:17:08.892,f7:68:33:b1:9e:f1, 2015-01-01 01:03:11.120, 0.572, 1.057, 0.883, 5.981, 49.927, -20.447, 69.747, -14.436, 13.601, -22.420, -82.613, -161.280, 23.75, -0.84933, -0.49387, -0.03534, -0.18268,
 08:17:08.892,f7:68:33:b1:9e:f1, 2015-01-01 01:03:11.120, 0.572, 1.057, 0.883, 5.981, 49.927, -20.447, 69.681, -14.271, 13.815, -22.420, -82.613, -161.280, 23.75, -0.84933, -0.49387, -0.03534, -0.18268,
 08:17:08.892,f7:68:33:b1:9e:f1, 2015-01-01 01:03:11.120, 0.572, 1.057, 0.883, 5.981, 49.927, -20.447, 69.609, -14.106, 14.03, -22.420, -82.613, -161.280, 23.75, -0.84933, -0.49387, -0.03534, -0.18268,
 08:17:08.892,f7:68:33:b1:9e:f1, 2015-01-01 01:03:11.120, 0.566, 1.057, 0.883, 5.981, 49.927, -20.447, 69.543, -13.942, 14.238, -22.420, -82.613, -161.280, 23.75, -0.84933, -0.49387, -0.03534, -0.18268,
 08:17:08.892,f7:68:33:b1:9e:f1, 2015-01-01 01:03:11.120, 0.566, 1.019, 0.933, 15.991, 65.125, -18.127, 69.505, -13.76, 14.529, -22.420, -82.613, -161.280, 23.75, -0.84933, -0.49387, -0.03534, -0.18268,
 08:17:08.937,d6:24:01:31:b7:6e, 2015-01-01 00:58:55.885, -0.058, 0.974, 0.285, -35.217, -75.256, 39.551, 74.13, -17.221, -78.898, -24.780, -42.453, -19.393, 25.66, 0.67032, 0.42068, -0.42471, -0.43951,
 08:17:08.953,f7:68:33:b1:9e:f1, 2015-01-01 01:03:11.120, 0.566, 1.019, 0.933, 15.991, 65.125, -18.127, 69.472, -13.585, 14.815, -22.420, -82.613, -161.280, 23.75, -0.84933, -0.49387, -0.03534, -0.18268,
 08:17:08.953,f7:68:33:b1:9e:f1, 2015-01-01 01:03:11.120, 0.566, 1.019, 0.933, 15.991, 65.125, -18.127, 69.434, -13.414, 15.106, -22.420, -82.613, -161.280, 23.75, -0.84933, -0.49387, -0.03534, -0.18268,
 08:17:08.953,f7:68:33:b1:9e:f1, 2015-01-01 01:03:11.120, 0.544, 1.019, 0.933, 15.991, 65.125, -18.127, 69.401, -13.239, 15.392, -22.420, -82.613, -161.280, 23.75, -0.84933, -0.49387, -0.03534, -0.18268,
 08:17:08.953,f7:68:33:b1:9e:f1, 2015-01-01 01:03:11.120, 0.544, 0.918, 0.927, 38.452, 91.187, -10.254, 69.445, -13.057, 15.815, -22.420, -82.613, -161.280, 23.75, -0.84933, -0.49387, -0.03534, -0.18268,
 08:17:08.953,f7:68:33:b1:9e:f1, 2015-01-01 01:03:11.120, 0.544, 0.918, 0.927, 38.452, 91.187, -10.254, 69.489, -12.881, 16.243, -22.420, -82.613, -161.280, 23.75, -0.84933, -0.49387, -0.03534, -0.18268,
 08:17:08.953,f7:68:33:b1:9e:f1, 2015-01-01 01:03:11.120, 0.544, 0.918, 0.927, 38.452, 91.187, -10.254, 69.538, -12.706, 16.666, -22.420, -82.613, -161.280, 23.75, -0.84933, -0.49387, -0.03534, -0.18268,
 08:17:08.953,f7:68:33:b1:9e:f1, 2015-01-01 01:03:11.120, 0.568, 0.918, 0.927, 38.452, 91.187, -10.254, 69.582, -12.535, 17.089, -22.420, -82.613, -161.280, 23.75, -0.84933, -0.49387, -0.03534, -0.18268,
 08:17:08.953,f7:68:33:b1:9e:f1, 2015-01-01 01:03:11.120, 0.568, 0.771, 0.859, 32.288, 130.249, 8.118, 69.549, -12.387, 17.732, -22.420, -82.613, -161.280, 23.75, -0.84933, -0.49387, -0.03534, -0.18268,
 08:17:08.983,f7:68:33:b1:9e:f1, 2015-01-01 01:03:11.120, 0.568, 0.771, 0.859, 32.288, 130.249, 8.118, 69.521, -12.239, 18.375, -22.420, -82.613, -161.280, 23.75, -0.84933, -0.49387, -0.03534, -0.18268,
 08:17:08.983,f7:68:33:b1:9e:f1, 2015-01-01 01:03:11.120, 0.568, 0.771, 0.859, 32.288, 130.249, 8.118, 69.489, -12.096, 19.012, -22.420, -82.613, -161.280, 23.75, -0.84933, -0.49387, -0.03534, -0.18268,
 08:17:08.983,f7:68:33:b1:9e:f1, 2015-01-01 01:03:11.120, 0.507, 0.771, 0.859, 32.288, 130.249, 8.118, 69.461, -11.948, 19.655, -22.420, -82.613, -161.280, 23.75, -0.84933, -0.49387, -0.03534, -0.18268,
 08:17:08.983,f7:68:33:b1:9e:f1, 2015-01-01 01:03:11.120, 0.507, 0.654, 0.52, 36.072, 142.883, 48.706, 69.423, -11.975, 20.418, -22.420, -82.613, -161.280, 23.75, -0.84933, -0.49387, -0.03534, -0.18268,
 08:17:08.983,f7:68:33:b1:9e:f1, 2015-01-01 01:03:11.120, 0.507, 0.654, 0.52, 36.072, 142.883, 48.706, 69.384, -12.003, 21.187, -22.420, -82.613, -161.280, 23.75, -0.84933, -0.49387, -0.03534, -0.18268,
 08:17:08.983,f7:68:33:b1:9e:f1, 2015-01-01 01:03:11.120, 0.507, 0.654, 0.52, 36.072, 142.883, 48.706, 69.351, -12.03, 21.956, -22.420, -82.613, -161.280, 23.75, -0.84933, -0.49387, -0.03534, -0.18268,
 08:17:08.983,f7:68:33:b1:9e:f1, 2015-01-01 01:03:11.120, 0.312, 0.654, 0.52, 36.072, 142.883, 48.706, 69.313, -12.063, 22.72, -22.420, -82.613, -161.280, 23.75, -0.84933, -0.49387, -0.03534, -0.18268,
 08:17:08.983,f7:68:33:b1:9e:f1, 2015-01-01 01:03:11.120, 0.312, 0.54, 0.166, 21.606, 124.207, 65.857, 69.219, -12.2, 23.423, -22.420, -82.613, -161.280, 23.75, -0.84933, -0.49387, -0.03534, -0.18268,
 08:17:09.044,f7:68:33:b1:9e:f1, 2015-01-01 01:03:11.120, 0.312, 0.54, 0.166, 21.606, 124.207, 65.857, 69.12, -12.338, 24.131, -22.420, -82.613, -161.280, 23.75, -0.84933, -0.49387, -0.03534, -0.18268,
 08:17:09.044,f7:68:33:b1:9e:f1, 2015-01-01 01:03:11.120, 0.312, 0.54, 0.166, 21.606, 124.207, 65.857, 69.027, -12.475, 24.84, -22.420, -82.613, -161.280, 23.75, -0.84933, -0.49387, -0.03534, -0.18268,
 08:17:09.044,f7:68:33:b1:9e:f1, 2015-01-01 01:03:11.120, 0.24, 0.54, 0.166, 21.606, 124.207, 65.857, 68.934, -12.612, 25.543, -22.420, -82.613, -161.280, 23.75, -0.84933, -0.49387, -0.03534, -0.18268,
 08:17:09.044,f7:68:33:b1:9e:f1, 2015-01-01 01:03:11.120, 0.24, 0.541, 0.041, 16.418, 111.328, 59.692, 68.824, -12.739, 26.18, -22.420, -82.613, -161.280, 23.75, -0.84933, -0.49387, -0.03534, -0.18268,
 08:17:09.044,f7:68:33:b1:9e:f1, 2015-01-01 01:03:11.120, 0.24, 0.541, 0.041, 16.418, 111.328, 59.692, 68.719, -12.865, 26.818, -22.420, -82.613, -161.280, 23.75, -0.84933, -0.49387, -0.03534, -0.18268,
 08:17:09.044,f7:68:33:b1:9e:f1, 2015-01-01 01:03:11.120, 0.24, 0.541, 0.041, 16.418, 111.328, 59.692, 68.615, -12.991, 27.455, -22.420, -82.613, -161.280, 23.75, -0.84933, -0.49387, -0.03534, -0.18268,
 08:17:09.044,f7:68:33:b1:9e:f1, 2015-01-01 01:03:11.120, 0.221, 0.541, 0.041, 16.418, 111.328, 59.692, 68.516, -13.118, 28.092, -22.420, -82.613, -161.280, 23.75, -0.84933, -0.49387, -0.03534, -0.18268,
 08:17:09.045,f7:68:33:b1:9e:f1, 2015-01-01 01:03:11.120, 0.221, 0.81, -0.164, -5.31, 77.148, 76.416, 68.335, -13.376, 28.597, -22.420, -82.613, -161.280, 23.75, -0.84933, -0.49387, -0.03534, -0.18268,
 08:17:09.058,d6:24:01:31:b7:6e, 2015-01-01 00:58:55.885, -0.294, 0.597, 0.125, -43.091, 7.446, -84.595, 69.868, -14.919, -81.771, -24.780, -42.453, -19.393, 25.66, 0.67032, 0.42068, -0.42471, -0.43951,
 08:17:09.073,f7:68:33:b1:9e:f1, 2015-01-01 01:03:11.120, 0.221, 0.81, -0.164, -5.31, 77.148, 76.416, 68.165, -13.629, 29.103, -28.573, -89.587, -150.507, 23.75, -0.84933, -0.49387, -0.03534, -0.18268,
 08:17:09.073,f7:68:33:b1:9e:f1, 2015-01-01 01:03:11.120, 0.221, 0.81, -0.164, -5.31, 77.148, 76.416, 67.989, -13.881, 29.608, -28.573, -89.587, -150.507, 23.75, -0.84933, -0.49387, -0.03534, -0.18268,
 08:17:09.073,f7:68:33:b1:9e:f1, 2015-01-01 01:03:11.120, 0.064, 0.81, -0.164, -5.31, 77.148, 76.416, 67.819, -14.134, 30.119, -28.573, -89.587, -150.507, 23.75, -0.84933, -0.49387, -0.03534, -0.18268,
 08:17:09.073,f7:68:33:b1:9e:f1, 2015-01-01 01:03:11.120, 0.064, 0.823, -0.289, 10.681, 34.607, 70.984, 67.786, -14.431, 30.416, -28.573, -89.587, -150.507, 23.75, -0.84933, -0.49387, -0.03534, -0.18268,
 08:17:09.073,f7:68:33:b1:9e:f1, 2015-01-01 01:03:11.120, 0.064, 0.823, -0.289, 10.681, 34.607, 70.984, 67.758, -14.722, 30.712, -28.573, -89.587, -150.507, 23.75, -0.84933, -0.49387, -0.03534, -0.18268,
 08:17:09.073,f7:68:33:b1:9e:f1, 2015-01-01 01:03:11.120, 0.064, 0.823, -0.289, 10.681, 34.607, 70.984, 67.731, -15.013, 31.009, -28.573, -89.587, -150.507, 23.75, -0.84933, -0.49387, -0.03534, -0.18268,
 08:17:09.073,f7:68:33:b1:9e:f1, 2015-01-01 01:03:11.120, 0.002, 0.823, -0.289, 10.681, 34.607, 70.984, 67.709, -15.298, 31.311, -28.573, -89.587, -150.507, 23.75, -0.84933, -0.49387, -0.03534, -0.18268,
 08:17:09.073,f7:68:33:b1:9e:f1, 2015-01-01 01:03:11.120, 0.002, 1.026, -0.293, 62.012, 9.399, 40.344, 67.994, -15.485, 31.432, -28.573, -89.587, -150.507, 23.75, -0.84933, -0.49387, -0.03534, -0.18268,
 08:17:09.105,f7:68:33:b1:9e:f1, 2015-01-01 01:03:11.120, 0.002, 1.026, -0.293, 62.012, 9.399, 40.344, 68.28, -15.667, 31.547, -28.573, -89.587, -150.507, 23.75, -0.84933, -0.49387, -0.03534, -0.18268,
 08:17:09.105,f7:68:33:b1:9e:f1, 2015-01-01 01:03:11.120, 0.002, 1.026, -0.293, 62.012, 9.399, 40.344, 68.577, -15.848, 31.668, -28.573, -89.587, -150.507, 23.75, -0.84933, -0.49387, -0.03534, -0.18268,
 08:17:09.105,f7:68:33:b1:9e:f1, 2015-01-01 01:03:11.120, -0.058, 1.026, -0.293, 62.012, 9.399, 40.344, 68.873, -16.024, 31.789, -28.573, -89.587, -150.507, 23.75, -0.84933, -0.49387, -0.03534, -0.18268,
 08:17:09.105,f7:68:33:b1:9e:f1, 2015-01-01 01:03:11.120, -0.058, 1.025, -0.214, 110.535, -19.165, 6.775, 69.467, -16.089, 31.707, -28.573, -89.587, -150.507, 23.75, -0.84933, -0.49387, -0.03534, -0.18268,
 08:17:09.105,f7:68:33:b1:9e:f1, 2015-01-01 01:03:11.120, -0.058, 1.025, -0.214, 110.535, -19.165, 6.775, 70.065, -16.15, 31.624, -28.573, -89.587, -150.507, 23.75, -0.84933, -0.49387, -0.03534, -0.18268,
 08:17:09.105,f7:68:33:b1:9e:f1, 2015-01-01 01:03:11.120, -0.058, 1.025, -0.214, 110.535, -19.165, 6.775, 70.67, -16.205, 31.542, -28.573, -89.587, -150.507, 23.75, -0.84933, -0.49387, -0.03534, -0.18268,
 08:17:09.105,f7:68:33:b1:9e:f1, 2015-01-01 01:03:11.120, -0.126, 1.025, -0.214, 110.535, -19.165, 6.775, 71.274, -16.254, 31.459, -28.573, -89.587, -150.507, 23.75, -0.84933, -0.49387, -0.03534, -0.18268,
 08:17:09.105,f7:68:33:b1:9e:f1, 2015-01-01 01:03:11.120, -0.126, 0.991, -0.202, 91.919, -36.621, -23.56, 71.823, -16.183, 31.245, -28.573, -89.587, -150.507, 23.75, -0.84933, -0.49387, -0.03534, -0.18268,
 08:17:09.117,d6:24:01:31:b7:6e, 2015-01-01 00:58:55.885, -0.248, 0.666, -0.02, -27.893, 34.851, -108.887, 68.945, -2.961, -85.204, -23.147, -37.500, -22.333, 25.66, 0.67032, 0.42068, -0.42471, -0.43951,
 08:17:09.164,f7:68:33:b1:9e:f1, 2015-01-01 01:03:11.120, -0.126, 0.991, -0.202, 91.919, -36.621, -23.56, 72.372, -16.106, 31.025, -28.573, -89.587, -150.507, 23.75, -0.74905, -0.58997, -0.05008, -0.297,
 08:17:09.164,f7:68:33:b1:9e:f1, 2015-01-01 01:03:11.120, -0.126, 0.991, -0.202, 91.919, -36.621, -23.56, 72.922, -16.024, 30.811, -28.573, -89.587, -150.507, 23.75, -0.74905, -0.58997, -0.05008, -0.297,
 08:17:09.164,f7:68:33:b1:9e:f1, 2015-01-01 01:03:11.120, -0.208, 0.991, -0.202, 91.919, -36.621, -23.56, 73.471, -15.941, 30.597, -28.573, -89.587, -150.507, 23.75, -0.74905, -0.58997, -0.05008, -0.297,
 08:17:09.164,f7:68:33:b1:9e:f1, 2015-01-01 01:03:11.120, -0.208, 0.916, -0.201, 90.149, -51.636, -41.077, 74.037, -15.782, 30.284, -28.573, -89.587, -150.507, 23.75, -0.74905, -0.58997, -0.05008, -0.297,
 08:17:09.164,f7:68:33:b1:9e:f1, 2015-01-01 01:03:11.120, -0.208, 0.916, -0.201, 90.149, -51.636, -41.077, 74.608, -15.623, 29.971, -28.573, -89.587, -150.507, 23.75, -0.74905, -0.58997, -0.05008, -0.297,
 08:17:09.164,f7:68:33:b1:9e:f1, 2015-01-01 01:03:11.120, -0.208, 0.916, -0.201, 90.149, -51.636, -41.077, 75.174, -15.452, 29.663, -28.573, -89.587, -150.507, 23.75, -0.74905, -0.58997, -0.05008, -0.297,
 08:17:09.164,f7:68:33:b1:9e:f1, 2015-01-01 01:03:11.120, -0.206, 0.916, -0.201, 90.149, -51.636, -41.077, 75.74, -15.282, 29.355, -28.573, -89.587, -150.507, 23.75, -0.74905, -0.58997, -0.05008, -0.297,
 08:17:09.164,f7:68:33:b1:9e:f1, 2015-01-01 01:03:11.120, -0.206, 0.948, -0.176, 54.077, -76.538, -47.363, 76.157, -15.095, 28.916, -28.573, -89.587, -150.507, 23.75, -0.74905, -0.58997, -0.05008, -0.297,
 08:17:09.192,f7:68:33:b1:9e:f1, 2015-01-01 01:03:11.445, -0.206, 0.948, -0.176, 54.077, -76.538, -47.363, 76.58, -14.908, 28.477, -28.573, -89.587, -150.507, 23.75, -0.74905, -0.58997, -0.05008, -0.297,
 08:17:09.192,f7:68:33:b1:9e:f1, 2015-01-01 01:03:11.445, -0.2, 0.948, -0.176, 54.077, -76.538, -47.363, 76.992, -14.716, 28.043, -28.573, -89.587, -150.507, 23.75, -0.74905, -0.58997, -0.05008, -0.297,
 08:17:09.192,f7:68:33:b1:9e:f1, 2015-01-01 01:03:11.445, -0.2, 0.821, -0.244, 1.404, -164.734, -47.18, 77.261, -14.606, 27.158, -28.573, -89.587, -150.507, 23.75, -0.74905, -0.58997, -0.05008, -0.297,
 08:17:09.192,f7:68:33:b1:9e:f1, 2015-01-01 01:03:11.445, -0.2, 0.821, -0.244, 1.404, -164.734, -47.18, 77.525, -14.491, 26.279, -28.573, -89.587, -150.507, 23.75, -0.74905, -0.58997, -0.05008, -0.297,
 08:17:09.192,f7:68:33:b1:9e:f1, 2015-01-01 01:03:11.445, -0.2, 0.821, -0.244, 1.404, -164.734, -47.18, 77.789, -14.37, 25.395, -28.573, -89.587, -150.507, 23.75, -0.74905, -0.58997, -0.05008, -0.297,
 08:17:09.192,f7:68:33:b1:9e:f1, 2015-01-01 01:03:11.445, -0.429, 0.821, -0.244, 1.404, -164.734, -47.18, 78.052, -14.238, 24.516, -28.573, -89.587, -150.507, 23.75, -0.74905, -0.58997, -0.05008, -0.297,
 08:17:09.192,f7:68:33:b1:9e:f1, 2015-01-01 01:03:11.445, -0.429, 0.287, -0.206, -82.52, -229.004, -46.631, 77.975, -14.167, 23.313, -28.573, -89.587, -150.507, 23.75, -0.74905, -0.58997, -0.05008, -0.297,
 08:17:09.192,f7:68:33:b1:9e:f1, 2015-01-01 01:03:11.445, -0.429, 0.287, -0.206, -82.52, -229.004, -46.631, 77.899, -14.09, 22.104, -28.573, -89.587, -150.507, 23.75, -0.74905, -0.58997, -0.05008, -0.297,
 08:17:09.222,f7:68:33:b1:9e:f1, 2015-01-01 01:03:11.445, -0.429, 0.287, -0.206, -82.52, -229.004, -46.631, 77.822, -14.013, 20.901, -28.573, -89.587, -150.507, 23.75, -0.74905, -0.58997, -0.05008, -0.297,
 08:17:09.222,f7:68:33:b1:9e:f1, 2015-01-01 01:03:11.445, -0.274, 0.287, -0.206, -82.52, -229.004, -46.631, 77.745, -13.931, 19.693, -28.573, -89.587, -150.507, 23.75, -0.74905, -0.58997, -0.05008, -0.297,
 08:17:09.222,f7:68:33:b1:9e:f1, 2015-01-01 01:03:11.445, -0.274, 0.405, -0.199, -158.081, -271.484, -37.292, 77.344, -13.936, 18.281, -28.573, -89.587, -150.507, 23.75, -0.74905, -0.58997, -0.05008, -0.297,
 08:17:09.222,f7:68:33:b1:9e:f1, 2015-01-01 01:03:11.445, -0.274, 0.405, -0.199, -158.081, -271.484, -37.292, 76.948, -13.953, 16.864, -28.573, -89.587, -150.507, 23.75, -0.74905, -0.58997, -0.05008, -0.297,
 08:17:09.222,f7:68:33:b1:9e:f1, 2015-01-01 01:03:11.445, -0.274, 0.405, -0.199, -158.081, -271.484, -37.292, 76.553, -13.975, 15.452, -28.573, -89.587, -150.507, 23.75, -0.74905, -0.58997, -0.05008, -0.297,
 08:17:09.222,f7:68:33:b1:9e:f1, 2015-01-01 01:03:11.445, 0.101, 0.405, -0.199, -158.081, -271.484, -37.292, 76.157, -14.002, 14.041, -28.573, -89.587, -150.507, 23.75, -0.74905, -0.58997, -0.05008, -0.297,
 08:17:09.222,f7:68:33:b1:9e:f1, 2015-01-01 01:03:11.445, 0.101, 0.762, -0.119, -73.059, -247.559, 5.615, 76.152, -14.222, 12.794, -28.573, -89.587, -150.507, 23.75, -0.74905, -0.58997, -0.05008, -0.297,
 08:17:09.222,f7:68:33:b1:9e:f1, 2015-01-01 01:03:11.445, 0.101, 0.762, -0.119, -73.059, -247.559, 5.615, 76.157, -14.442, 11.547, -28.573, -89.587, -150.507, 23.75, -0.74905, -0.58997, -0.05008, -0.297,
 08:17:09.238,d6:24:01:31:b7:6e, 2015-01-01 00:58:55.885, -0.59, 0.299, 0.314, -81.299, 201.843, -112.732, 60.864, 10.574, -75.817, -23.147, -37.500, -22.333, 25.66, 0.65054, 0.46274, -0.21677, -0.56174,
 08:17:09.284,f7:68:33:b1:9e:f1, 2015-01-01 01:03:11.445, 0.101, 0.762, -0.119, -73.059, -247.559, 5.615, 76.163, -14.667, 10.294, -28.573, -89.587, -150.507, 23.75, -0.74905, -0.58997, -0.05008, -0.297,
 08:17:09.284,f7:68:33:b1:9e:f1, 2015-01-01 01:03:11.445, 0.279, 0.762, -0.119, -73.059, -247.559, 5.615, 76.174, -14.886, 9.047, -28.573, -89.587, -150.507, 23.75, -0.74905, -0.58997, -0.05008, -0.297,
 08:17:09.284,f7:68:33:b1:9e:f1, 2015-01-01 01:03:11.445, 0.279, 0.809, 0.058, -38.269, -219.177, 53.65, 76.311, -15.32, 7.987, -28.573, -89.587, -150.507, 23.75, -0.74905, -0.58997, -0.05008, -0.297,
 08:17:09.284,f7:68:33:b1:9e:f1, 2015-01-01 01:03:11.445, 0.279, 0.809, 0.058, -38.269, -219.177, 53.65, 76.459, -15.749, 6.932, -28.573, -89.587, -150.507, 23.75, -0.74905, -0.58997, -0.05008, -0.297,
 08:17:09.284,f7:68:33:b1:9e:f1, 2015-01-01 01:03:11.445, 0.279, 0.809, 0.058, -38.269, -219.177, 53.65, 76.608, -16.177, 5.867, -28.573, -89.587, -150.507, 23.75, -0.74905, -0.58997, -0.05008, -0.297,
 08:17:09.285,f7:68:33:b1:9e:f1, 2015-01-01 01:03:11.445, 0.366, 0.809, 0.058, -38.269, -219.177, 53.65, 76.767, -16.611, 4.801, -28.573, -89.587, -150.507, 23.75, -0.74905, -0.58997, -0.05008, -0.297,
 08:17:09.285,f7:68:33:b1:9e:f1, 2015-01-01 01:03:11.445, 0.366, 1.048, 0.05, -24.597, -155.396, 56.824, 76.904, -16.99, 4.065, -28.573, -89.587, -150.507, 23.75, -0.74905, -0.58997, -0.05008, -0.297,
 08:17:09.285,f7:68:33:b1:9e:f1, 2015-01-01 01:03:11.445, 0.366, 1.048, 0.05, -24.597, -155.396, 56.824, 77.047, -17.375, 3.323, -28.573, -89.587, -150.507, 23.75, -0.74905, -0.58997, -0.05008, -0.297,
 08:17:09.317,f7:68:33:b1:9e:f1, 2015-01-01 01:03:11.445, 0.366, 1.048, 0.05, -24.597, -155.396, 56.824, 77.195, -17.759, 2.582, -28.573, -89.587, -150.507, 23.75, -0.74905, -0.58997, -0.05008, -0.297,
 08:17:09.317,f7:68:33:b1:9e:f1, 2015-01-01 01:03:11.445, 0.359, 1.048, 0.05, -24.597, -155.396, 56.824, 77.344, -18.144, 1.835, -28.573, -89.587, -150.507, 23.75, -0.74905, -0.58997, -0.05008, -0.297,
 08:17:09.317,f7:68:33:b1:9e:f1, 2015-01-01 01:03:11.445, 0.359, 0.98, 0.048, 6.409, -110.596, 53.345, 77.58, -18.474, 1.313, -28.573, -89.587, -150.507, 23.75, -0.74905, -0.58997, -0.05008, -0.297,
 08:17:09.317,f7:68:33:b1:9e:f1, 2015-01-01 01:03:11.445, 0.359, 0.98, 0.048, 6.409, -110.596, 53.345, 77.816, -18.798, 0.791, -28.573, -89.587, -150.507, 23.75, -0.74905, -0.58997, -0.05008, -0.297,
 08:17:09.317,f7:68:33:b1:9e:f1, 2015-01-01 01:03:11.445, 0.359, 0.98, 0.048, 6.409, -110.596, 53.345, 78.058, -19.122, 0.269, -28.573, -89.587, -150.507, 23.75, -0.74905, -0.58997, -0.05008, -0.297,
 08:17:09.317,f7:68:33:b1:9e:f1, 2015-01-01 01:03:11.445, 0.331, 0.98, 0.048, 6.409, -110.596, 53.345, 78.3, -19.446, -0.253, -28.573, -89.587, -150.507, 23.75, -0.74905, -0.58997, -0.05008, -0.297,
 08:17:09.318,f7:68:33:b1:9e:f1, 2015-01-01 01:03:11.445, 0.331, 0.944, 0.107, 23.01, -88.867, 57.19, 78.591, -19.77, -0.665, -28.573, -89.587, -150.507, 23.75, -0.74905, -0.58997, -0.05008, -0.297,
 08:17:09.318,f7:68:33:b1:9e:f1, 2015-01-01 01:03:11.445, 0.331, 0.944, 0.107, 23.01, -88.867, 57.19, 78.876, -20.094, -1.077, -28.573, -89.587, -150.507, 23.75, -0.74905, -0.58997, -0.05008, -0.297,
 08:17:09.328,d6:24:01:31:b7:6e, 2015-01-01 00:58:56.300, -0.794, 0.697, 0.877, -17.395, 256.165, -99.792, 63.441, 31.02, -58.942, -23.147, -37.500, -22.333, 25.66, 0.65054, 0.46274, -0.21677, -0.56174,
 08:17:09.344,f7:68:33:b1:9e:f1, 2015-01-01 01:03:11.445, 0.331, 0.944, 0.107, 23.01, -88.867, 57.19, 79.167, -20.413, -1.494, -28.573, -89.587, -150.507, 23.75, -0.74905, -0.58997, -0.05008, -0.297,
 08:17:09.344,f7:68:33:b1:9e:f1, 2015-01-01 01:03:11.445, 0.345, 0.944, 0.107, 23.01, -88.867, 57.19, 79.459, -20.731, -1.917, -28.573, -89.587, -150.507, 23.75, -0.74905, -0.58997, -0.05008, -0.297,
 08:17:09.344,f7:68:33:b1:9e:f1, 2015-01-01 01:03:11.445, 0.345, 0.969, 0.309, 70.557, -120.483, 73.914, 80.041, -21.154, -2.494, -28.573, -89.587, -150.507, 23.75, -0.74905, -0.58997, -0.05008, -0.297,
 08:17:09.344,f7:68:33:b1:9e:f1, 2015-01-01 01:03:11.445, 0.345, 0.969, 0.309, 70.557, -120.483, 73.914, 80.623, -21.572, -3.076, -28.573, -89.587, -150.507, 23.75, -0.74905, -0.58997, -0.05008, -0.297,
 08:17:09.344,f7:68:33:b1:9e:f1, 2015-01-01 01:03:11.445, 0.345, 0.969, 0.309, 70.557, -120.483, 73.914, 81.205, -21.989, -3.669, -28.573, -89.587, -150.507, 23.75, -0.74905, -0.58997, -0.05008, -0.297,
 08:17:09.345,f7:68:33:b1:9e:f1, 2015-01-01 01:03:11.445, 0.222, 0.969, 0.309, 70.557, -120.483, 73.914, 81.793, -22.396, -4.263, -28.573, -89.587, -150.507, 23.75, -0.74905, -0.58997, -0.05008, -0.297,
 08:17:09.345,f7:68:33:b1:9e:f1, 2015-01-01 01:03:11.445, 0.222, 0.828, -0.021, 41.26, -371.094, 122.437, 82.749, -23.159, -6.191, -28.573, -89.587, -150.507, 23.75, -0.74905, -0.58997, -0.05008, -0.297,
 08:17:09.345,f7:68:33:b1:9e:f1, 2015-01-01 01:03:11.445, 0.222, 0.828, -0.021, 41.26, -371.094, 122.437, 83.738, -23.895, -8.146, -28.573, -89.587, -150.507, 23.75, -0.74905, -0.58997, -0.05008, -0.297,
 08:17:09.405,f7:68:33:b1:9e:f1, 2015-01-01 01:03:11.445, 0.222, 0.828, -0.021, 41.26, -371.094, 122.437, 84.754, -24.598, -10.124, -28.573, -89.587, -150.507, 23.75, -0.74905, -0.58997, -0.05008, -0.297,
 08:17:09.405,f7:68:33:b1:9e:f1, 2015-01-01 01:03:11.445, 0.167, 0.828, -0.021, 41.26, -371.094, 122.437, 85.803, -25.269, -12.123, -28.573, -89.587, -150.507, 23.75, -0.74905, -0.58997, -0.05008, -0.297,
 08:17:09.405,f7:68:33:b1:9e:f1, 2015-01-01 01:03:11.445, 0.167, 0.85, -0.057, 36.804, -293.64, 55.42, 86.671, -25.554, -13.733, -28.573, -89.587, -150.507, 23.75, -0.74905, -0.58997, -0.05008, -0.297,
 08:17:09.405,f7:68:33:b1:9e:f1, 2015-01-01 01:03:11.445, 0.167, 0.85, -0.057, 36.804, -293.64, 55.42, 87.55, -25.823, -15.348, -28.573, -89.587, -150.507, 23.75, -0.74905, -0.58997, -0.05008, -0.297,
 08:17:09.405,f7:68:33:b1:9e:f1, 2015-01-01 01:03:11.445, 0.167, 0.85, -0.057, 36.804, -293.64, 55.42, 88.434, -26.065, -16.968, -28.573, -89.587, -150.507, 23.75, -0.74905, -0.58997, -0.05008, -0.297,
 08:17:09.405,f7:68:33:b1:9e:f1, 2015-01-01 01:03:11.445, -0.009, 0.85, -0.057, 36.804, -293.64, 55.42, 89.33, -26.279, -18.6, -28.573, -89.587, -150.507, 23.75, -0.74905, -0.58997, -0.05008, -0.297,
 08:17:09.405,f7:68:33:b1:9e:f1, 2015-01-01 01:03:11.445, -0.009, 0.749, -0.241, 37.231, -183.35, 8.606, 89.956, -26.257, -19.611, -28.573, -89.587, -150.507, 23.75, -0.74905, -0.58997, -0.05008, -0.297,
 08:17:09.406,f7:68:33:b1:9e:f1, 2015-01-01 01:03:11.445, -0.009, 0.749, -0.241, 37.231, -183.35, 8.606, 90.588, -26.224, -20.627, -28.573, -89.587, -150.507, 23.75, -0.74905, -0.58997, -0.05008, -0.297,
 08:17:09.434,f7:68:33:b1:9e:f1, 2015-01-01 01:03:11.445, -0.009, 0.749, -0.241, 37.231, -183.35, 8.606, 91.214, -26.175, -21.638, -45.507, -87.960, -133.600, 23.75, -0.74905, -0.58997, -0.05008, -0.297,
 08:17:09.434,f7:68:33:b1:9e:f1, 2015-01-01 01:03:11.445, 0.333, 0.749, -0.241, 37.231, -183.35, 8.606, 91.84, -26.12, -22.654, -45.507, -87.960, -133.600, 23.75, -0.74905, -0.58997, -0.05008, -0.297,
 08:17:09.434,f7:68:33:b1:9e:f1, 2015-01-01 01:03:11.445, 0.333, 0.933, -0.25, -12.756, -264.221, 0.671, 92.411, -25.988, -24.109, -45.507, -87.960, -133.600, 23.75, -0.74905, -0.58997, -0.05008, -0.297,
 08:17:09.434,f7:68:33:b1:9e:f1, 2015-01-01 01:03:11.445, 0.333, 0.933, -0.25, -12.756, -264.221, 0.671, 92.977, -25.845, -25.565, -45.507, -87.960, -133.600, 23.75, -0.74905, -0.58997, -0.05008, -0.297,
 08:17:09.434,f7:68:33:b1:9e:f1, 2015-01-01 01:03:11.445, 0.333, 0.933, -0.25, -12.756, -264.221, 0.671, 93.543, -25.686, -27.015, -45.507, -87.960, -133.600, 23.75, -0.74905, -0.58997, -0.05008, -0.297,
 08:17:09.434,f7:68:33:b1:9e:f1, 2015-01-01 01:03:11.445, 0.693, 0.933, -0.25, -12.756, -264.221, 0.671, 94.098, -25.521, -28.46, -45.507, -87.960, -133.600, 23.75, -0.74905, -0.58997, -0.05008, -0.297,
 08:17:09.434,f7:68:33:b1:9e:f1, 2015-01-01 01:03:11.445, 0.693, 0.906, -0.157, -18.555, -228.455, 12.39, 94.543, -25.428, -29.713, -45.507, -87.960, -133.600, 23.75, -0.74905, -0.58997, -0.05008, -0.297,
 08:17:09.434,f7:68:33:b1:9e:f1, 2015-01-01 01:03:11.445, 0.693, 0.906, -0.157, -18.555, -228.455, 12.39, 94.982, -25.329, -30.965, -45.507, -87.960, -133.600, 23.75, -0.74905, -0.58997, -0.05008, -0.297,
 08:17:09.446,d6:24:01:31:b7:6e, 2015-01-01 00:58:56.300, -0.652, 1.07, 0.813, 225.037, -35.706, -15.198, 80.052, 35.162, -51.674, -23.147, -37.500, -22.333, 25.66, 0.65054, 0.46274, -0.21677, -0.56174,
 08:17:09.464,f7:68:33:b1:9e:f1, 2015-01-01 01:03:11.445, 0.693, 0.906, -0.157, -18.555, -228.455, 12.39, 95.416, -25.225, -32.217, -45.507, -87.960, -133.600, 23.75, -0.74905, -0.58997, -0.05008, -0.297,
 08:17:09.464,f7:68:33:b1:9e:f1, 2015-01-01 01:03:11.445, 0.641, 0.906, -0.157, -18.555, -228.455, 12.39, 95.85, -25.115, -33.464, -45.507, -87.960, -133.600, 23.75, -0.74905, -0.58997, -0.05008, -0.297,
 08:17:09.464,f7:68:33:b1:9e:f1, 2015-01-01 01:03:11.445, 0.641, 0.86, -0.279, 2.258, -96.497, 43.823, 96.092, -25.247, -34.019, -45.507, -87.960, -133.600, 23.75, -0.74905, -0.58997, -0.05008, -0.297,
 08:17:09.464,f7:68:33:b1:9e:f1, 2015-01-01 01:03:11.445, 0.641, 0.86, -0.279, 2.258, -96.497, 43.823, 96.339, -25.384, -34.568, -45.507, -87.960, -133.600, 23.75, -0.74905, -0.58997, -0.05008, -0.297,
 08:17:09.464,f7:68:33:b1:9e:f1, 2015-01-01 01:03:11.445, 0.641, 0.86, -0.279, 2.258, -96.497, 43.823, 96.586, -25.516, -35.123, -45.507, -87.960, -133.600, 23.75, -0.74905, -0.58997, -0.05008, -0.297,
 08:17:09.464,f7:68:33:b1:9e:f1, 2015-01-01 01:03:11.445, 0.526, 0.86, -0.279, 2.258, -96.497, 43.823, 96.839, -25.648, -35.678, -45.507, -87.960, -133.600, 23.75, -0.74905, -0.58997, -0.05008, -0.297,
 08:17:09.465,f7:68:33:b1:9e:f1, 2015-01-01 01:03:11.445, 0.526, 0.989, -0.305, 23.621, -56.091, 58.411, 97.108, -25.884, -36.024, -45.507, -87.960, -133.600, 23.75, -0.74905, -0.58997, -0.05008, -0.297,
 08:17:09.465,f7:68:33:b1:9e:f1, 2015-01-01 01:03:11.445, 0.526, 0.989, -0.305, 23.621, -56.091, 58.411, 97.383, -26.12, -36.376, -45.507, -87.960, -133.600, 23.75, -0.74905, -0.58997, -0.05008, -0.297,
 08:17:09.525,f7:68:33:b1:9e:f1, 2015-01-01 01:03:11.445, 0.526, 0.989, -0.305, 23.621, -56.091, 58.411, 97.657, -26.351, -36.727, -45.507, -87.960, -133.600, 23.75, -0.65781, -0.66089, 0.35953, 0.03394,
 08:17:09.525,f7:68:33:b1:9e:f1, 2015-01-01 01:03:11.445, 0.489, 0.989, -0.305, 23.621, -56.091, 58.411, 97.938, -26.581, -37.079, -45.507, -87.960, -133.600, 23.75, -0.65781, -0.66089, 0.35953, 0.03394,
 08:17:09.525,f7:68:33:b1:9e:f1, 2015-01-01 01:03:11.445, 0.489, 0.945, -0.22, 25.146, 14.526, 65.002, 98.053, -26.9, -37.051, -45.507, -87.960, -133.600, 23.75, -0.65781, -0.66089, 0.35953, 0.03394,
 08:17:09.525,f7:68:33:b1:9e:f1, 2015-01-01 01:03:11.445, 0.489, 0.945, -0.22, 25.146, 14.526, 65.002, 98.174, -27.224, -37.024, -45.507, -87.960, -133.600, 23.75, -0.65781, -0.66089, 0.35953, 0.03394,
 08:17:09.525,f7:68:33:b1:9e:f1, 2015-01-01 01:03:11.445, 0.489, 0.945, -0.22, 25.146, 14.526, 65.002, 98.289, -27.543, -36.996, -45.507, -87.960, -133.600, 23.75, -0.65781, -0.66089, 0.35953, 0.03394,
 08:17:09.525,f7:68:33:b1:9e:f1, 2015-01-01 01:03:11.445, 0.576, 0.945, -0.22, 25.146, 14.526, 65.002, 98.41, -27.867, -36.974, -45.507, -87.960, -133.600, 23.75, -0.65781, -0.66089, 0.35953, 0.03394,
 08:17:09.525,f7:68:33:b1:9e:f1, 2015-01-01 01:03:11.445, 0.576, 1.025, 0.163, 75.134, 168.518, 57.617, 98.372, -28.284, -36.085, -45.507, -87.960, -133.600, 23.75, -0.65781, -0.66089, 0.35953, 0.03394,
 08:17:09.526,f7:68:33:b1:9e:f1, 2015-01-01 01:03:11.445, 0.576, 1.025, 0.163, 75.134, 168.518, 57.617, 98.322, -28.707, -35.189, -45.507, -87.960, -133.600, 23.75, -0.65781, -0.66089, 0.35953, 0.03394,
 08:17:09.538,d6:24:01:31:b7:6e, 2015-01-01 00:58:56.300, -0.52, 1.273, 0.327, -18.982, -152.771, -99.915, 74.361, 41.38, -77.009, 23.007, -25.573, -11.347, 25.66, 0.65054, 0.46274, -0.21677, -0.56174,
 08:17:09.553,f7:68:33:b1:9e:f1, 2015-01-01 01:03:11.805, 0.576, 1.025, 0.163, 75.134, 168.518, 57.617, 98.262, -29.125, -34.288, -45.507, -87.960, -133.600, 23.75, -0.65781, -0.66089, 0.35953, 0.03394,
 08:17:09.553,f7:68:33:b1:9e:f1, 2015-01-01 01:03:11.805, 0.479, 1.025, 0.163, 75.134, 168.518, 57.617, 98.19, -29.542, -33.387, -45.507, -87.960, -133.600, 23.75, -0.65781, -0.66089, 0.35953, 0.03394,
 08:17:09.553,f7:68:33:b1:9e:f1, 2015-01-01 01:03:11.805, 0.479, 0.755, -0.279, 111.755, 157.227, 51.392, 98.328, -29.921, -32.542, -45.507, -87.960, -133.600, 23.75, -0.65781, -0.66089, 0.35953, 0.03394,
 08:17:09.553,f7:68:33:b1:9e:f1, 2015-01-01 01:03:11.805, 0.479, 0.755, -0.279, 111.755, 157.227, 51.392, 98.459, -30.3, -31.69, -45.507, -87.960, -133.600, 23.75, -0.65781, -0.66089, 0.35953, 0.03394,
 08:17:09.553,f7:68:33:b1:9e:f1, 2015-01-01 01:03:11.805, 0.479, 0.755, -0.279, 111.755, 157.227, 51.392, 98.586, -30.679, -30.839, -45.507, -87.960, -133.600, 23.75, -0.65781, -0.66089, 0.35953, 0.03394,
 08:17:09.553,f7:68:33:b1:9e:f1, 2015-01-01 01:03:11.805, 0.381, 0.755, -0.279, 111.755, 157.227, 51.392, 98.707, -31.058, -29.987, -45.507, -87.960, -133.600, 23.75, -0.65781, -0.66089, 0.35953, 0.03394,
 08:17:09.553,f7:68:33:b1:9e:f1, 2015-01-01 01:03:11.805, 0.381, 0.927, -0.054, 88.318, 162.292, 42.542, 98.685, -31.399, -29.092, -45.507, -87.960, -133.600, 23.75, -0.65781, -0.66089, 0.35953, 0.03394,
 08:17:09.553,f7:68:33:b1:9e:f1, 2015-01-01 01:03:11.805, 0.381, 0.927, -0.054, 88.318, 162.292, 42.542, 98.652, -31.74, -28.191, -45.507, -87.960, -133.600, 23.75, -0.65781, -0.66089, 0.35953, 0.03394,
 08:17:09.583,f7:68:33:b1:9e:f1, 2015-01-01 01:03:11.805, 0.381, 0.927, -0.054, 88.318, 162.292, 42.542, 98.619, -32.08, -27.29, -45.507, -87.960, -133.600, 23.75, -0.65781, -0.66089, 0.35953, 0.03394,
 08:17:09.583,f7:68:33:b1:9e:f1, 2015-01-01 01:03:11.805, 0.209, 0.927, -0.054, 88.318, 162.292, 42.542, 98.575, -32.415, -26.384, -45.507, -87.960, -133.600, 23.75, -0.65781, -0.66089, 0.35953, 0.03394,
 08:17:09.583,f7:68:33:b1:9e:f1, 2015-01-01 01:03:11.805, 0.209, 0.697, -0.439, 127.258, 127.38, -35.706, 98.789, -32.333, -25.598, -45.507, -87.960, -133.600, 23.75, -0.65781, -0.66089, 0.35953, 0.03394,
 08:17:09.583,f7:68:33:b1:9e:f1, 2015-01-01 01:03:11.805, 0.209, 0.697, -0.439, 127.258, 127.38, -35.706, 99.009, -32.256, -24.807, -45.507, -87.960, -133.600, 23.75, -0.65781, -0.66089, 0.35953, 0.03394,
 08:17:09.583,f7:68:33:b1:9e:f1, 2015-01-01 01:03:11.805, 0.209, 0.697, -0.439, 127.258, 127.38, -35.706, 99.229, -32.173, -24.022, -45.507, -87.960, -133.600, 23.75, -0.65781, -0.66089, 0.35953, 0.03394,
 08:17:09.583,f7:68:33:b1:9e:f1, 2015-01-01 01:03:11.805, 0.146, 0.697, -0.439, 127.258, 127.38, -35.706, 99.454, -32.102, -23.236, -45.507, -87.960, -133.600, 23.75, -0.65781, -0.66089, 0.35953, 0.03394,
 08:17:09.583,f7:68:33:b1:9e:f1, 2015-01-01 01:03:11.805, 0.146, 0.631, -0.358, 118.286, 27.649, -30.762, 99.943, -31.954, -23.033, -45.507, -87.960, -133.600, 23.75, -0.65781, -0.66089, 0.35953, 0.03394,
 08:17:09.583,f7:68:33:b1:9e:f1, 2015-01-01 01:03:11.805, 0.146, 0.631, -0.358, 118.286, 27.649, -30.762, 100.437, -31.805, -22.83, -45.507, -87.960, -133.600, 23.75, -0.65781, -0.66089, 0.35953, 0.03394,
 08:17:09.643,f7:68:33:b1:9e:f1, 2015-01-01 01:03:11.805, 0.146, 0.631, -0.358, 118.286, 27.649, -30.762, 100.926, -31.657, -22.626, -45.507, -87.960, -133.600, 23.75, -0.65781, -0.66089, 0.35953, 0.03394,
 08:17:09.643,f7:68:33:b1:9e:f1, 2015-01-01 01:03:11.805, 0.506, 0.631, -0.358, 118.286, 27.649, -30.762, 101.42, -31.509, -22.423, -45.507, -87.960, -133.600, 23.75, -0.65781, -0.66089, 0.35953, 0.03394,
 08:17:09.643,f7:68:33:b1:9e:f1, 2015-01-01 01:03:11.805, 0.506, 0.656, -0.213, 150.879, 4.944, -38.025, 102.134, -31.306, -22.335, -45.507, -87.960, -133.600, 23.75, -0.65781, -0.66089, 0.35953, 0.03394,
 08:17:09.643,f7:68:33:b1:9e:f1, 2015-01-01 01:03:11.805, 0.506, 0.656, -0.213, 150.879, 4.944, -38.025, 102.843, -31.108, -22.242, -45.507, -87.960, -133.600, 23.75, -0.65781, -0.66089, 0.35953, 0.03394,
 08:17:09.643,f7:68:33:b1:9e:f1, 2015-01-01 01:03:11.805, 0.506, 0.656, -0.213, 150.879, 4.944, -38.025, 103.557, -30.91, -22.148, -45.507, -87.960, -133.600, 23.75, -0.65781, -0.66089, 0.35953, 0.03394,
 08:17:09.643,f7:68:33:b1:9e:f1, 2015-01-01 01:03:11.805, 0.867, 0.656, -0.213, 150.879, 4.944, -38.025, 104.26, -30.712, -22.055, -45.507, -87.960, -133.600, 23.75, -0.65781, -0.66089, 0.35953, 0.03394,
 08:17:09.643,f7:68:33:b1:9e:f1, 2015-01-01 01:03:11.805, 0.867, 0.781, -0.103, 119.751, 10.132, -19.409, 104.81, -30.624, -21.962, -45.507, -87.960, -133.600, 23.75, -0.65781, -0.66089, 0.35953, 0.03394,
 08:17:09.644,f7:68:33:b1:9e:f1, 2015-01-01 01:03:11.805, 0.867, 0.781, -0.103, 119.751, 10.132, -19.409, 105.353, -30.536, -21.863, -45.507, -87.960, -133.600, 23.75, -0.65781, -0.66089, 0.35953, 0.03394,
 08:17:09.657,d6:24:01:31:b7:6e, 2015-01-01 00:58:56.660, -0.538, 0.964, 0.381, -68.481, -73.669, -33.02, 55.992, 45.363, -89.022, 23.007, -25.573, -11.347, 25.66, 0.45404, 0.54755, -0.06079, -0.7002,
 08:17:09.676,f7:68:33:b1:9e:f1, 2015-01-01 01:03:11.805, 0.867, 0.781, -0.103, 119.751, 10.132, -19.409, 105.897, -30.454, -21.764, -45.507, -87.960, -133.600, 23.75, -0.65781, -0.66089, 0.35953, 0.03394,
 08:17:09.676,f7:68:33:b1:9e:f1, 2015-01-01 01:03:11.805, 0.609, 0.781, -0.103, 119.751, 10.132, -19.409, 106.436, -30.377, -21.671, -45.507, -87.960, -133.600, 23.75, -0.65781, -0.66089, 0.35953, 0.03394,
 08:17:09.676,f7:68:33:b1:9e:f1, 2015-01-01 01:03:11.805, 0.609, 0.82, -0.233, 115.295, 28.625, -49.438, 106.875, -30.19, -21.412, -45.507, -87.960, -133.600, 23.75, -0.65781, -0.66089, 0.35953, 0.03394,
 08:17:09.676,f7:68:33:b1:9e:f1, 2015-01-01 01:03:11.805, 0.609, 0.82, -0.233, 115.295, 28.625, -49.438, 107.309, -30.004, -21.16, -45.507, -87.960, -133.600, 23.75, -0.65781, -0.66089, 0.35953, 0.03394,
 08:17:09.676,f7:68:33:b1:9e:f1, 2015-01-01 01:03:11.805, -0.076, 0.82, -0.233, 115.295, 28.625, -49.438, 107.748, -29.822, -20.901, -45.507, -87.960, -133.600, 23.75, -0.65781, -0.66089, 0.35953, 0.03394,
 08:17:09.676,f7:68:33:b1:9e:f1, 2015-01-01 01:03:11.805, -0.076, 1.04, -0.503, 242.493, 237.305, -204.224, 108.122, -29.262, -19.221, -45.507, -87.960, -133.600, 23.75, -0.65781, -0.66089, 0.35953, 0.03394,
 08:17:09.676,f7:68:33:b1:9e:f1, 2015-01-01 01:03:11.805, -0.076, 1.04, -0.503, 242.493, 237.305, -204.224, 108.512, -28.707, -17.54, -45.507, -87.960, -133.600, 23.75, -0.65781, -0.66089, 0.35953, 0.03394,
 08:17:09.677,f7:68:33:b1:9e:f1, 2015-01-01 01:03:11.805, -0.076, 1.04, -0.503, 242.493, 237.305, -204.224, 108.924, -28.158, -15.864, -45.507, -87.960, -133.600, 23.75, -0.65781, -0.66089, 0.35953, 0.03394,
 08:17:09.703,f7:68:33:b1:9e:f1, 2015-01-01 01:03:11.805, 0.616, 1.04, -0.503, 242.493, 237.305, -204.224, 109.347, -27.62, -14.194, -45.507, -87.960, -133.600, 23.75, -0.65781, -0.66089, 0.35953, 0.03394,
 08:17:09.703,f7:68:33:b1:9e:f1, 2015-01-01 01:03:11.805, 0.616, 0.563, -0.427, 334.412, 152.954, -172.729, 110.473, -27.092, -13.03, -45.507, -87.960, -133.600, 23.75, -0.65781, -0.66089, 0.35953, 0.03394,
 08:17:09.703,f7:68:33:b1:9e:f1, 2015-01-01 01:03:11.805, 0.616, 0.563, -0.427, 334.412, 152.954, -172.729, 111.61, -26.592, -11.86, -45.507, -87.960, -133.600, 23.75, -0.65781, -0.66089, 0.35953, 0.03394,
 08:17:09.703,f7:68:33:b1:9e:f1, 2015-01-01 01:03:11.805, 0.616, 0.563, -0.427, 334.412, 152.954, -172.729, 112.747, -26.115, -10.684, -45.507, -87.960, -133.600, 23.75, -0.65781, -0.66089, 0.35953, 0.03394,
 08:17:09.703,f7:68:33:b1:9e:f1, 2015-01-01 01:03:11.805, 0.779, 0.563, -0.427, 334.412, 152.954, -172.729, 113.895, -25.664, -9.503, -45.507, -87.960, -133.600, 23.75, -0.65781, -0.66089, 0.35953, 0.03394,
 08:17:09.703,f7:68:33:b1:9e:f1, 2015-01-01 01:03:11.805, 0.779, 0.634, -0.175, 208.069, 108.582, -39.307, 114.642, -25.73, -8.866, -45.507, -87.960, -133.600, 23.75, -0.65781, -0.66089, 0.35953, 0.03394,
 08:17:09.703,f7:68:33:b1:9e:f1, 2015-01-01 01:03:11.805, 0.779, 0.634, -0.175, 208.069, 108.582, -39.307, 115.384, -25.812, -8.223, -45.507, -87.960, -133.600, 23.75, -0.65781, -0.66089, 0.35953, 0.03394,
 08:17:09.704,f7:68:33:b1:9e:f1, 2015-01-01 01:03:11.805, 0.779, 0.634, -0.175, 208.069, 108.582, -39.307, 116.125, -25.906, -7.586, -45.507, -87.960, -133.600, 23.75, -0.65781, -0.66089, 0.35953, 0.03394,
 08:17:09.748,d6:24:01:31:b7:6e, 2015-01-01 00:58:56.660, -0.412, 0.86, 0.542, -28.015, -54.688, 75.195, 49.944, 38.815, -86.495, 23.007, -25.573, -11.347, 25.66, 0.45404, 0.54755, -0.06079, -0.7002,
 08:17:09.764,f7:68:33:b1:9e:f1, 2015-01-01 01:03:11.805, 0.536, 0.634, -0.175, 208.069, 108.582, -39.307, 116.862, -26.005, -6.949, -45.507, -87.960, -133.600, 23.75, -0.65781, -0.66089, 0.35953, 0.03394,
 08:17:09.764,f7:68:33:b1:9e:f1, 2015-01-01 01:03:11.805, 0.536, 0.625, -0.448, 83.008, 66.711, 14.465, 117.125, -26.246, -6.658, -45.507, -87.960, -133.600, 23.75, -0.65781, -0.66089, 0.35953, 0.03394,
 08:17:09.764,f7:68:33:b1:9e:f1, 2015-01-01 01:03:11.805, 0.536, 0.625, -0.448, 83.008, 66.711, 14.465, 117.389, -26.488, -6.372, -45.507, -87.960, -133.600, 23.75, -0.65781, -0.66089, 0.35953, 0.03394,
 08:17:09.764,f7:68:33:b1:9e:f1, 2015-01-01 01:03:11.805, 0.536, 0.625, -0.448, 83.008, 66.711, 14.465, 117.658, -26.735, -6.081, -45.507, -87.960, -133.600, 23.75, -0.65781, -0.66089, 0.35953, 0.03394,
 08:17:09.764,f7:68:33:b1:9e:f1, 2015-01-01 01:03:11.805, 0.476, 0.625, -0.448, 83.008, 66.711, 14.465, 117.922, -26.977, -5.79, -45.507, -87.960, -133.600, 23.75, -0.65781, -0.66089, 0.35953, 0.03394,
 08:17:09.765,f7:68:33:b1:9e:f1, 2015-01-01 01:03:11.805, 0.476, 0.743, -0.511, -16.174, 57.495, 62.683, 117.773, -27.405, -5.68, -45.507, -87.960, -133.600, 23.75, -0.65781, -0.66089, 0.35953, 0.03394,
 08:17:09.765,f7:68:33:b1:9e:f1, 2015-01-01 01:03:11.805, 0.476, 0.743, -0.511, -16.174, 57.495, 62.683, 117.625, -27.834, -5.565, -45.507, -87.960, -133.600, 23.75, -0.65781, -0.66089, 0.35953, 0.03394,
 08:17:09.765,f7:68:33:b1:9e:f1, 2015-01-01 01:03:11.805, 0.476, 0.743, -0.511, -16.174, 57.495, 62.683, 117.477, -28.257, -5.455, -45.507, -87.960, -133.600, 23.75, -0.65781, -0.66089, 0.35953, 0.03394,
 08:17:09.824,f7:68:33:b1:9e:f1, 2015-01-01 01:03:11.805, 0.875, 0.743, -0.511, -16.174, 57.495, 62.683, 117.334, -28.68, -5.334, -49.707, -88.867, -109.987, 23.75, -0.65781, -0.66089, 0.35953, 0.03394,
 08:17:09.824,f7:68:33:b1:9e:f1, 2015-01-01 01:03:11.805, 0.875, 0.766, -0.602, -12.451, 80.2, 129.578, 117.241, -29.454, -5.29, -49.707, -88.867, -109.987, 23.75, -0.65781, -0.66089, 0.35953, 0.03394,
 08:17:09.824,f7:68:33:b1:9e:f1, 2015-01-01 01:03:11.805, 0.875, 0.766, -0.602, -12.451, 80.2, 129.578, 117.153, -30.223, -5.24, -49.707, -88.867, -109.987, 23.75, -0.65781, -0.66089, 0.35953, 0.03394,
 08:17:09.824,f7:68:33:b1:9e:f1, 2015-01-01 01:03:11.805, 0.875, 0.766, -0.602, -12.451, 80.2, 129.578, 117.059, -30.992, -5.191, -49.707, -88.867, -109.987, 23.75, -0.65781, -0.66089, 0.35953, 0.03394,
 08:17:09.824,f7:68:33:b1:9e:f1, 2015-01-01 01:03:11.805, 0.46, 0.766, -0.602, -12.451, 80.2, 129.578, 116.971, -31.761, -5.142, -49.707, -88.867, -109.987, 23.75, -0.65781, -0.66089, 0.35953, 0.03394,
 08:17:09.825,f7:68:33:b1:9e:f1, 2015-01-01 01:03:11.805, 0.46, 0.78, -0.398, -48.767, 36.56, 71.045, 116.73, -32.162, -5.147, -49.707, -88.867, -109.987, 23.75, -0.65781, -0.66089, 0.35953, 0.03394,
 08:17:09.825,f7:68:33:b1:9e:f1, 2015-01-01 01:03:11.805, 0.46, 0.78, -0.398, -48.767, 36.56, 71.045, 116.488, -32.563, -5.147, -49.707, -88.867, -109.987, 23.75, -0.65781, -0.66089, 0.35953, 0.03394,
 08:17:09.825,f7:68:33:b1:9e:f1, 2015-01-01 01:03:11.805, 0.46, 0.78, -0.398, -48.767, 36.56, 71.045, 116.246, -32.964, -5.147, -49.707, -88.867, -109.987, 23.75, -0.65781, -0.66089, 0.35953, 0.03394,
 08:17:09.825,f7:68:33:b1:9e:f1, 2015-01-01 01:03:11.805, 0.592, 0.78, -0.398, -48.767, 36.56, 71.045, 116.01, -33.365, -5.147, -49.707, -88.867, -109.987, 23.75, -0.65781, -0.66089, 0.35953, 0.03394,
 08:17:09.825,f7:68:33:b1:9e:f1, 2015-01-01 01:03:11.805, 0.592, 0.55, -0.478, -19.592, 23.926, 34.668, 115.895, -33.574, -5.114, -49.707, -88.867, -109.987, 23.75, -0.65781, -0.66089, 0.35953, 0.03394,
 08:17:09.826,f7:68:33:b1:9e:f1, 2015-01-01 01:03:11.805, 0.592, 0.55, -0.478, -19.592, 23.926, 34.668, 115.785, -33.783, -5.076, -49.707, -88.867, -109.987, 23.75, -0.65781, -0.66089, 0.35953, 0.03394,
 08:17:09.826,f7:68:33:b1:9e:f1, 2015-01-01 01:03:11.805, 0.592, 0.55, -0.478, -19.592, 23.926, 34.668, 115.67, -33.992, -5.037, -49.707, -88.867, -109.987, 23.75, -0.65781, -0.66089, 0.35953, 0.03394,
 08:17:09.826,f7:68:33:b1:9e:f1, 2015-01-01 01:03:11.805, 0.745, 0.55, -0.478, -19.592, 23.926, 34.668, 115.565, -34.2, -4.999, -49.707, -88.867, -109.987, 23.75, -0.65781, -0.66089, 0.35953, 0.03394,
 08:17:09.826,f7:68:33:b1:9e:f1, 2015-01-01 01:03:11.805, 0.745, 0.566, -0.386, -46.021, -17.7, 69.153, 115.505, -34.47, -5.279, -49.707, -88.867, -109.987, 23.75, -0.65781, -0.66089, 0.35953, 0.03394,
 08:17:09.826,f7:68:33:b1:9e:f1, 2015-01-01 01:03:11.805, 0.745, 0.566, -0.386, -46.021, -17.7, 69.153, 115.444, -34.739, -5.559, -49.707, -88.867, -109.987, 23.75, -0.65781, -0.66089, 0.35953, 0.03394,
 08:17:09.826,f7:68:33:b1:9e:f1, 2015-01-01 01:03:11.805, 0.745, 0.566, -0.386, -46.021, -17.7, 69.153, 115.389, -35.008, -5.845, -49.707, -88.867, -109.987, 23.75, -0.65781, -0.66089, 0.35953, 0.03394,
 08:17:09.838,d6:24:01:31:b7:6e, 2015-01-01 00:58:56.660, -0.539, 0.926, 0.577, 13.428, -129.211, 92.529, 47.862, 26.779, -82.634, 2.480, -22.167, -36.167, 25.66, 0.45404, 0.54755, -0.06079, -0.7002,
 08:17:09.885,f7:68:33:b1:9e:f1, 2015-01-01 01:03:11.805, 0.711, 0.566, -0.386, -46.021, -17.7, 69.153, 115.334, -35.277, -6.125, -49.707, -88.867, -109.987, 23.75, -0.50677, -0.81046, 0.18674, -0.22665,
 08:17:09.885,f7:68:33:b1:9e:f1, 2015-01-01 01:03:11.805, 0.711, 0.702, -0.421, -13.062, -26.001, 43.213, 115.428, -35.414, -6.383, -49.707, -88.867, -109.987, 23.75, -0.50677, -0.81046, 0.18674, -0.22665,
 08:17:09.885,f7:68:33:b1:9e:f1, 2015-01-01 01:03:11.805, 0.711, 0.702, -0.421, -13.062, -26.001, 43.213, 115.521, -35.552, -6.636, -49.707, -88.867, -109.987, 23.75, -0.50677, -0.81046, 0.18674, -0.22665,
 08:17:09.885,f7:68:33:b1:9e:f1, 2015-01-01 01:03:11.805, 0.355, 0.702, -0.421, -13.062, -26.001, 43.213, 115.62, -35.689, -6.894, -49.707, -88.867, -109.987, 23.75, -0.50677, -0.81046, 0.18674, -0.22665,
 08:17:09.885,f7:68:33:b1:9e:f1, 2015-01-01 01:03:11.805, 0.618, 0.351, -0.21, -13.062, -26.001, 43.213, 115.719, -35.826, -7.152, -49.707, -88.867, -109.987, 23.75, -0.50677, -0.81046, 0.18674, -0.22665,
 08:17:09.885,f7:68:33:b1:9e:f1, 2015-01-01 01:03:11.805, 0.618, 0.607, -0.434, 5.066, -18.005, -2.258, 115.807, -35.782, -7.24, -49.707, -88.867, -109.987, 23.75, -0.50677, -0.81046, 0.18674, -0.22665,
 08:17:09.885,f7:68:33:b1:9e:f1, 2015-01-01 01:03:11.805, 0.618, 0.607, -0.434, 5.066, -18.005, -2.258, 115.895, -35.733, -7.328, -49.707, -88.867, -109.987, 23.75, -0.50677, -0.81046, 0.18674, -0.22665,
 08:17:09.885,f7:68:33:b1:9e:f1, 2015-01-01 01:03:11.805, 0.618, 0.607, -0.434, 5.066, -18.005, -2.258, 115.983, -35.689, -7.41, -49.707, -88.867, -109.987, 23.75, -0.50677, -0.81046, 0.18674, -0.22665,
 08:17:09.912,f7:68:33:b1:9e:f1, 2015-01-01 01:03:12.160, 0.742, 0.607, -0.434, 5.066, -18.005, -2.258, 116.071, -35.645, -7.498, -49.707, -88.867, -109.987, 23.75, -0.50677, -0.81046, 0.18674, -0.22665,
 08:17:09.912,f7:68:33:b1:9e:f1, 2015-01-01 01:03:12.160, 0.742, 0.607, -0.395, -5.188, -13.855, 23.499, 116.142, -35.722, -7.63, -49.707, -88.867, -109.987, 23.75, -0.50677, -0.81046, 0.18674, -0.22665,
 08:17:09.912,f7:68:33:b1:9e:f1, 2015-01-01 01:03:12.160, 0.742, 0.607, -0.395, -5.188, -13.855, 23.499, 116.208, -35.804, -7.767, -49.707, -88.867, -109.987, 23.75, -0.50677, -0.81046, 0.18674, -0.22665,
 08:17:09.912,f7:68:33:b1:9e:f1, 2015-01-01 01:03:12.160, 0.742, 0.607, -0.395, -5.188, -13.855, 23.499, 116.279, -35.887, -7.905, -49.707, -88.867, -109.987, 23.75, -0.50677, -0.81046, 0.18674, -0.22665,
 08:17:09.912,f7:68:33:b1:9e:f1, 2015-01-01 01:03:12.160, 0.683, 0.607, -0.395, -5.188, -13.855, 23.499, 116.345, -35.964, -8.042, -49.707, -88.867, -109.987, 23.75, -0.50677, -0.81046, 0.18674, -0.22665,
 08:17:09.912,f7:68:33:b1:9e:f1, 2015-01-01 01:03:12.160, 0.683, 0.677, -0.471, -36.682, -28.687, 33.142, 116.323, -36.057, -8.289, -49.707, -88.867, -109.987, 23.75, -0.50677, -0.81046, 0.18674, -0.22665,
 08:17:09.912,f7:68:33:b1:9e:f1, 2015-01-01 01:03:12.160, 0.683, 0.677, -0.471, -36.682, -28.687, 33.142, 116.296, -36.145, -8.536, -49.707, -88.867, -109.987, 23.75, -0.50677, -0.81046, 0.18674, -0.22665,
 08:17:09.913,f7:68:33:b1:9e:f1, 2015-01-01 01:03:12.160, 0.683, 0.677, -0.471, -36.682, -28.687, 33.142, 116.274, -36.233, -8.784, -49.707, -88.867, -109.987, 23.75, -0.50677, -0.81046, 0.18674, -0.22665,
 08:17:09.927,d6:24:01:31:b7:6e, 2015-01-01 00:58:56.660, -0.175, 0.839, 0.409, -29.358, 81.909, 217.712, 48.851, 13.173, -72.686, 2.480, -22.167, -36.167, 25.66, 0.73376, 0.39832, -0.15988, -0.52655,
 08:17:09.943,f7:68:33:b1:9e:f1, 2015-01-01 01:03:12.160, 0.648, 0.677, -0.471, -36.682, -28.687, 33.142, 116.252, -36.321, -9.031, -49.707, -88.867, -109.987, 23.75, -0.50677, -0.81046, 0.18674, -0.22665,
 08:17:09.943,f7:68:33:b1:9e:f1, 2015-01-01 01:03:12.160, 0.648, 0.792, -0.529, -110.657, -51.392, 35.156, 115.939, -36.365, -9.41, -49.707, -88.867, -109.987, 23.75, -0.50677, -0.81046, 0.18674, -0.22665,
 08:17:09.943,f7:68:33:b1:9e:f1, 2015-01-01 01:03:12.160, 0.648, 0.792, -0.529, -110.657, -51.392, 35.156, 115.631, -36.409, -9.789, -49.707, -88.867, -109.987, 23.75, -0.50677, -0.81046, 0.18674, -0.22665,
 08:17:09.943,f7:68:33:b1:9e:f1, 2015-01-01 01:03:12.160, 0.648, 0.792, -0.529, -110.657, -51.392, 35.156, 115.318, -36.453, -10.168, -49.707, -88.867, -109.987, 23.75, -0.50677, -0.81046, 0.18674, -0.22665,
 08:17:09.943,f7:68:33:b1:9e:f1, 2015-01-01 01:03:12.160, 0.662, 0.792, -0.529, -110.657, -51.392, 35.156, 115.01, -36.497, -10.541, -49.707, -88.867, -109.987, 23.75, -0.50677, -0.81046, 0.18674, -0.22665,
 08:17:09.943,f7:68:33:b1:9e:f1, 2015-01-01 01:03:12.160, 0.662, 0.753, -0.427, -148.56, -47.974, 32.41, 114.494, -36.541, -10.893, -49.707, -88.867, -109.987, 23.75, -0.50677, -0.81046, 0.18674, -0.22665,
 08:17:09.943,f7:68:33:b1:9e:f1, 2015-01-01 01:03:12.160, 0.662, 0.753, -0.427, -148.56, -47.974, 32.41, 113.983, -36.59, -11.245, -49.707, -88.867, -109.987, 23.75, -0.50677, -0.81046, 0.18674, -0.22665,
 08:17:09.943,f7:68:33:b1:9e:f1, 2015-01-01 01:03:12.160, 0.662, 0.753, -0.427, -148.56, -47.974, 32.41, 113.472, -36.634, -11.596, -49.707, -88.867, -109.987, 23.75, -0.50677, -0.81046, 0.18674, -0.22665,
 08:17:10.003,f7:68:33:b1:9e:f1, 2015-01-01 01:03:12.160, 0.698, 0.753, -0.427, -148.56, -47.974, 32.41, 112.961, -36.683, -11.948, -49.707, -88.867, -109.987, 23.75, -0.50677, -0.81046, 0.18674, -0.22665,
 08:17:10.003,f7:68:33:b1:9e:f1, 2015-01-01 01:03:12.160, 0.698, 0.702, -0.33, -129.333, -37.598, 27.893, 112.511, -36.738, -12.228, -49.707, -88.867, -109.987, 23.75, -0.50677, -0.81046, 0.18674, -0.22665,
 08:17:10.003,f7:68:33:b1:9e:f1, 2015-01-01 01:03:12.160, 0.698, 0.702, -0.33, -129.333, -37.598, 27.893, 112.055, -36.793, -12.502, -49.707, -88.867, -109.987, 23.75, -0.50677, -0.81046, 0.18674, -0.22665,
 08:17:10.003,f7:68:33:b1:9e:f1, 2015-01-01 01:03:12.160, 0.698, 0.702, -0.33, -129.333, -37.598, 27.893, 111.599, -36.854, -12.783, -49.707, -88.867, -109.987, 23.75, -0.50677, -0.81046, 0.18674, -0.22665,
 08:17:10.003,f7:68:33:b1:9e:f1, 2015-01-01 01:03:12.160, 0.725, 0.702, -0.33, -129.333, -37.598, 27.893, 111.149, -36.914, -13.063, -49.707, -88.867, -109.987, 23.75, -0.50677, -0.81046, 0.18674, -0.22665,
 08:17:10.003,f7:68:33:b1:9e:f1, 2015-01-01 01:03:12.160, 0.725, 0.67, -0.336, -108.704, -23.743, 12.878, 110.726, -36.936, -13.228, -49.707, -88.867, -109.987, 23.75, -0.50677, -0.81046, 0.18674, -0.22665,
 08:17:10.003,f7:68:33:b1:9e:f1, 2015-01-01 01:03:12.160, 0.725, 0.67, -0.336, -108.704, -23.743, 12.878, 110.308, -36.958, -13.387, -49.707, -88.867, -109.987, 23.75, -0.50677, -0.81046, 0.18674, -0.22665,
 08:17:10.003,f7:68:33:b1:9e:f1, 2015-01-01 01:03:12.160, 0.725, 0.67, -0.336, -108.704, -23.743, 12.878, 109.891, -36.98, -13.552, -49.707, -88.867, -109.987, 23.75, -0.50677, -0.81046, 0.18674, -0.22665,
 08:17:10.034,f7:68:33:b1:9e:f1, 2015-01-01 01:03:12.160, 0.736, 0.67, -0.336, -108.704, -23.743, 12.878, 109.473, -37.007, -13.711, -49.707, -88.867, -109.987, 23.75, -0.50677, -0.81046, 0.18674, -0.22665,
 08:17:10.034,f7:68:33:b1:9e:f1, 2015-01-01 01:03:12.160, 0.736, 0.618, -0.312, -106.934, -18.127, 19.287, 109.056, -37.073, -13.854, -49.707, -88.867, -109.987, 23.75, -0.50677, -0.81046, 0.18674, -0.22665,
 08:17:10.034,f7:68:33:b1:9e:f1, 2015-01-01 01:03:12.160, 0.736, 0.618, -0.312, -106.934, -18.127, 19.287, 108.638, -37.139, -13.997, -49.707, -88.867, -109.987, 23.75, -0.50677, -0.81046, 0.18674, -0.22665,
 08:17:10.034,f7:68:33:b1:9e:f1, 2015-01-01 01:03:12.160, 0.736, 0.618, -0.312, -106.934, -18.127, 19.287, 108.221, -37.211, -14.139, -49.707, -88.867, -109.987, 23.75, -0.50677, -0.81046, 0.18674, -0.22665,
 08:17:10.034,f7:68:33:b1:9e:f1, 2015-01-01 01:03:12.160, 0.718, 0.618, -0.312, -106.934, -18.127, 19.287, 107.803, -37.282, -14.282, -49.707, -88.867, -109.987, 23.75, -0.50677, -0.81046, 0.18674, -0.22665,
 08:17:10.034,f7:68:33:b1:9e:f1, 2015-01-01 01:03:12.160, 0.718, 0.596, -0.364, -129.333, -25.085, 55.054, 107.347, -37.513, -14.54, -49.707, -88.867, -109.987, 23.75, -0.50677, -0.81046, 0.18674, -0.22665,
 08:17:10.034,f7:68:33:b1:9e:f1, 2015-01-01 01:03:12.160, 0.718, 0.596, -0.364, -129.333, -25.085, 55.054, 106.891, -37.744, -14.799, -49.707, -88.867, -109.987, 23.75, -0.50677, -0.81046, 0.18674, -0.22665,
 08:17:10.034,f7:68:33:b1:9e:f1, 2015-01-01 01:03:12.160, 0.718, 0.596, -0.364, -129.333, -25.085, 55.054, 106.441, -37.974, -15.057, -49.707, -88.867, -109.987, 23.75, -0.50677, -0.81046, 0.18674, -0.22665,
 08:17:10.047,d6:24:01:31:b7:6e, 2015-01-01 00:58:57.015, -0.309, 0.709, 0.693, -54.199, 173.34, 104.248, 51.762, 9.783, -52.493, 2.480, -22.167, -36.167, 25.66, 0.73376, 0.39832, -0.15988, -0.52655,
 08:17:10.064,f7:68:33:b1:9e:f1, 2015-01-01 01:03:12.160, 0.727, 0.596, -0.364, -129.333, -25.085, 55.054, 105.985, -38.21, -15.309, -49.707, -88.867, -109.987, 23.75, -0.50677, -0.81046, 0.18674, -0.22665,
 08:17:10.064,f7:68:33:b1:9e:f1, 2015-01-01 01:03:12.160, 0.727, 0.921, -0.377, -406.799, -54.321, 32.104, 104.233, -38.298, -15.694, -49.707, -88.867, -109.987, 23.75, -0.50677, -0.81046, 0.18674, -0.22665,
 08:17:10.064,f7:68:33:b1:9e:f1, 2015-01-01 01:03:12.160, 0.727, 0.921, -0.377, -406.799, -54.321, 32.104, 102.48, -38.386, -16.078, -49.707, -88.867, -109.987, 23.75, -0.50677, -0.81046, 0.18674, -0.22665,
 08:17:10.064,f7:68:33:b1:9e:f1, 2015-01-01 01:03:12.160, 0.727, 0.921, -0.377, -406.799, -54.321, 32.104, 100.734, -38.491, -16.458, -49.707, -88.867, -109.987, 23.75, -0.50677, -0.81046, 0.18674, -0.22665,
 08:17:10.064,f7:68:33:b1:9e:f1, 2015-01-01 01:03:12.160, 0.655, 0.921, -0.377, -406.799, -54.321, 32.104, 98.987, -38.6, -16.831, -49.707, -88.867, -109.987, 23.75, -0.50677, -0.81046, 0.18674, -0.22665,
 08:17:10.064,f7:68:33:b1:9e:f1, 2015-01-01 01:03:12.160, 0.655, 0.547, -0.082, -291.26, 21.851, 44.861, 97.526, -38.848, -16.738, -49.707, -88.867, -109.987, 23.75, -0.50677, -0.81046, 0.18674, -0.22665,
 08:17:10.064,f7:68:33:b1:9e:f1, 2015-01-01 01:03:12.160, 0.655, 0.547, -0.082, -291.26, 21.851, 44.861, 96.07, -39.089, -16.639, -49.707, -88.867, -109.987, 23.75, -0.50677, -0.81046, 0.18674, -0.22665,
 08:17:10.064,f7:68:33:b1:9e:f1, 2015-01-01 01:03:12.160, 0.655, 0.547, -0.082, -291.26, 21.851, 44.861, 94.603, -39.337, -16.534, -49.707, -88.867, -109.987, 23.75, -0.50677, -0.81046, 0.18674, -0.22665,
 08:17:10.124,f7:68:33:b1:9e:f1, 2015-01-01 01:03:12.160, 0.702, 0.547, -0.082, -291.26, 21.851, 44.861, 93.137, -39.578, -16.419, -49.707, -88.867, -109.987, 23.75, -0.50677, -0.81046, 0.18674, -0.22665,
 08:17:10.124,f7:68:33:b1:9e:f1, 2015-01-01 01:03:12.160, 0.702, 1.118, -0.537, -574.219, 76.416, 89.661, 90.044, -40.051, -15.952, -49.707, -88.867, -109.987, 23.75, -0.50677, -0.81046, 0.18674, -0.22665,
 08:17:10.124,f7:68:33:b1:9e:f1, 2015-01-01 01:03:12.160, 0.702, 1.118, -0.537, -574.219, 76.416, 89.661, 86.929, -40.501, -15.458, -49.707, -88.867, -109.987, 23.75, -0.50677, -0.81046, 0.18674, -0.22665,
 08:17:10.124,f7:68:33:b1:9e:f1, 2015-01-01 01:03:12.160, 0.702, 1.118, -0.537, -574.219, 76.416, 89.661, 83.804, -40.93, -14.93, -49.707, -88.867, -109.987, 23.75, -0.50677, -0.81046, 0.18674, -0.22665,
 08:17:10.124,f7:68:33:b1:9e:f1, 2015-01-01 01:03:12.160, 0.133, 1.118, -0.537, -574.219, 76.416, 89.661, 80.662, -41.331, -14.365, -49.707, -88.867, -109.987, 23.75, -0.50677, -0.81046, 0.18674, -0.22665,
 08:17:10.124,f7:68:33:b1:9e:f1, 2015-01-01 01:03:12.160, 0.133, -0.627, 1.267, -279.846, 68.726, 92.346, 78.997, -41.737, -13.826, -49.707, -88.867, -109.987, 23.75, -0.50677, -0.81046, 0.18674, -0.22665,
 08:17:10.124,f7:68:33:b1:9e:f1, 2015-01-01 01:03:12.160, 0.133, -0.627, 1.267, -279.846, 68.726, 92.346, 77.311, -42.138, -13.266, -49.707, -88.867, -109.987, 23.75, -0.50677, -0.81046, 0.18674, -0.22665,
 08:17:10.125,f7:68:33:b1:9e:f1, 2015-01-01 01:03:12.160, 0.133, -0.627, 1.267, -279.846, 68.726, 92.346, 75.597, -42.534, -12.689, -49.707, -88.867, -109.987, 23.75, -0.50677, -0.81046, 0.18674, -0.22665,
 08:17:10.137,d6:24:01:31:b7:6e, 2015-01-01 00:58:57.015, -0.292, 0.788, 0.84, -36.865, 78.674, 59.204, 50.208, 16.04, -35.453, 2.480, -22.167, -36.167, 25.66, 0.73376, 0.39832, -0.15988, -0.52655,
 08:17:10.153,f7:68:33:b1:9e:f1, 2015-01-01 01:03:12.160, 0.607, -0.627, 1.267, -279.846, 68.726, 92.346, 73.85, -42.924, -12.09, -58.413, -78.293, -126.513, 23.75, -0.50677, -0.81046, 0.18674, -0.22665,
 08:17:10.153,f7:68:33:b1:9e:f1, 2015-01-01 01:03:12.160, 0.607, 0.701, -0.005, 7.935, -13.489, 16.541, 73.987, -43.039, -12.151, -58.413, -78.293, -126.513, 23.75, -0.50677, -0.81046, 0.18674, -0.22665,
 08:17:10.153,f7:68:33:b1:9e:f1, 2015-01-01 01:03:12.160, 0.607, 0.701, -0.005, 7.935, -13.489, 16.541, 74.13, -43.149, -12.211, -58.413, -78.293, -126.513, 23.75, -0.50677, -0.81046, 0.18674, -0.22665,
 08:17:10.153,f7:68:33:b1:9e:f1, 2015-01-01 01:03:12.160, 0.7, 0.701, -0.005, 7.935, -13.489, 16.541, 74.268, -43.259, -12.277, -58.413, -78.293, -126.513, 23.75, -0.50677, -0.81046, 0.18674, -0.22665,
 08:17:10.153,f7:68:33:b1:9e:f1, 2015-01-01 01:03:12.160, 0.7, 0.729, 0.121, 23.926, 23.376, 31.494, 74.301, -43.401, -12.074, -58.413, -78.293, -126.513, 23.75, -0.50677, -0.81046, 0.18674, -0.22665,
 08:17:10.153,f7:68:33:b1:9e:f1, 2015-01-01 01:03:12.160, 0.7, 0.729, 0.121, 23.926, 23.376, 31.494, 74.328, -43.539, -11.871, -58.413, -78.293, -126.513, 23.75, -0.50677, -0.81046, 0.18674, -0.22665,
 08:17:10.154,f7:68:33:b1:9e:f1, 2015-01-01 01:03:12.160, 0.7, 0.729, 0.121, 23.926, 23.376, 31.494, 74.35, -43.671, -11.662, -58.413, -78.293, -126.513, 23.75, -0.50677, -0.81046, 0.18674, -0.22665,
 08:17:10.154,f7:68:33:b1:9e:f1, 2015-01-01 01:03:12.160, 0.885, 0.729, 0.121, 23.926, 23.376, 31.494, 74.372, -43.808, -11.459, -58.413, -78.293, -126.513, 23.75, -0.50677, -0.81046, 0.18674, -0.22665,
 08:17:10.184,f7:68:33:b1:9e:f1, 2015-01-01 01:03:12.160, 0.885, 0.787, 0.34, 70.312, 62.317, 53.894, 74.416, -44.006, -10.953, -58.413, -78.293, -126.513, 23.75, -0.50677, -0.81046, 0.18674, -0.22665,
 08:17:10.184,f7:68:33:b1:9e:f1, 2015-01-01 01:03:12.160, 0.885, 0.787, 0.34, 70.312, 62.317, 53.894, 74.449, -44.203, -10.453, -58.413, -78.293, -126.513, 23.75, -0.50677, -0.81046, 0.18674, -0.22665,
 08:17:10.184,f7:68:33:b1:9e:f1, 2015-01-01 01:03:12.160, 0.885, 0.787, 0.34, 70.312, 62.317, 53.894, 74.476, -44.401, -9.948, -58.413, -78.293, -126.513, 23.75, -0.50677, -0.81046, 0.18674, -0.22665,
 08:17:10.184,f7:68:33:b1:9e:f1, 2015-01-01 01:03:12.160, 0.854, 0.787, 0.34, 70.312, 62.317, 53.894, 74.498, -44.599, -9.437, -58.413, -78.293, -126.513, 23.75, -0.50677, -0.81046, 0.18674, -0.22665,
 08:17:10.184,f7:68:33:b1:9e:f1, 2015-01-01 01:03:12.160, 0.854, 0.663, 0.203, 50.842, 45.471, 23.682, 74.531, -44.67, -9.097, -58.413, -78.293, -126.513, 23.75, -0.50677, -0.81046, 0.18674, -0.22665,
 08:17:10.184,f7:68:33:b1:9e:f1, 2015-01-01 01:03:12.160, 0.854, 0.663, 0.203, 50.842, 45.471, 23.682, 74.564, -44.742, -8.751, -58.413, -78.293, -126.513, 23.75, -0.50677, -0.81046, 0.18674, -0.22665,
 08:17:10.184,f7:68:33:b1:9e:f1, 2015-01-01 01:03:12.160, 0.854, 0.663, 0.203, 50.842, 45.471, 23.682, 74.592, -44.813, -8.41, -58.413, -78.293, -126.513, 23.75, -0.50677, -0.81046, 0.18674, -0.22665,
 08:17:10.184,f7:68:33:b1:9e:f1, 2015-01-01 01:03:12.160, 0.746, 0.663, 0.203, 50.842, 45.471, 23.682, 74.619, -44.885, -8.064, -58.413, -78.293, -126.513, 23.75, -0.50677, -0.81046, 0.18674, -0.22665,
 08:17:10.244,f7:68:33:b1:9e:f1, 2015-01-01 01:03:12.160, 0.746, 0.618, 0.187, 62.744, 47.424, 20.02, 74.702, -44.934, -7.712, -58.413, -78.293, -126.513, 23.75, -0.74463, -0.54556, 0.34335, -0.17291,
 08:17:10.244,f7:68:33:b1:9e:f1, 2015-01-01 01:03:12.160, 0.746, 0.618, 0.187, 62.744, 47.424, 20.02, 74.778, -44.989, -7.361, -58.413, -78.293, -126.513, 23.75, -0.74463, -0.54556, 0.34335, -0.17291,
 08:17:10.244,f7:68:33:b1:9e:f1, 2015-01-01 01:03:12.160, 0.746, 0.618, 0.187, 62.744, 47.424, 20.02, 74.85, -45.044, -7.009, -58.413, -78.293, -126.513, 23.75, -0.74463, -0.54556, 0.34335, -0.17291,
 08:17:10.244,f7:68:33:b1:9e:f1, 2015-01-01 01:03:12.160, 0.697, 0.618, 0.187, 62.744, 47.424, 20.02, 74.927, -45.099, -6.652, -58.413, -78.293, -126.513, 23.75, -0.74463, -0.54556, 0.34335, -0.17291,
 08:17:10.244,f7:68:33:b1:9e:f1, 2015-01-01 01:03:12.160, 0.697, 0.687, 0.194, 56.03, 26.672, -0.793, 75.086, -45.071, -6.476, -58.413, -78.293, -126.513, 23.75, -0.74463, -0.54556, 0.34335, -0.17291,
 08:17:10.245,f7:68:33:b1:9e:f1, 2015-01-01 01:03:12.160, 0.697, 0.687, 0.194, 56.03, 26.672, -0.793, 75.251, -45.049, -6.301, -58.413, -78.293, -126.513, 23.75, -0.74463, -0.54556, 0.34335, -0.17291,
 08:17:10.245,f7:68:33:b1:9e:f1, 2015-01-01 01:03:12.160, 0.697, 0.687, 0.194, 56.03, 26.672, -0.793, 75.41, -45.022, -6.125, -58.413, -78.293, -126.513, 23.75, -0.74463, -0.54556, 0.34335, -0.17291,
 08:17:10.245,f7:68:33:b1:9e:f1, 2015-01-01 01:03:12.160, 0.644, 0.687, 0.194, 56.03, 26.672, -0.793, 75.569, -45, -5.949, -58.413, -78.293, -126.513, 23.75, -0.74463, -0.54556, 0.34335, -0.17291,
 08:17:10.258,d6:24:01:31:b7:6e, 2015-01-01 00:58:57.015, -0.348, 0.743, 0.648, 39.978, -1.099, 24.963, 49.708, 15.721, -24.67, 11.087, -30.333, -28.213, 25.66, 0.73376, 0.39832, -0.15988, -0.52655,
 08:17:10.282,f7:68:33:b1:9e:f1, 2015-01-01 01:03:12.520, 0.644, 0.679, 0.188, 43.701, -16.052, -13.428, 75.883, -44.956, -6.086, -58.413, -78.293, -126.513, 23.75, -0.74463, -0.54556, 0.34335, -0.17291,
 08:17:10.282,f7:68:33:b1:9e:f1, 2015-01-01 01:03:12.520, 0.644, 0.679, 0.188, 43.701, -16.052, -13.428, 76.196, -44.918, -6.224, -58.413, -78.293, -126.513, 23.75, -0.74463, -0.54556, 0.34335, -0.17291,
 08:17:10.282,f7:68:33:b1:9e:f1, 2015-01-01 01:03:12.520, 0.644, 0.679, 0.188, 43.701, -16.052, -13.428, 76.509, -44.874, -6.356, -58.413, -78.293, -126.513, 23.75, -0.74463, -0.54556, 0.34335, -0.17291,
 08:17:10.282,f7:68:33:b1:9e:f1, 2015-01-01 01:03:12.520, 0.671, 0.679, 0.188, 43.701, -16.052, -13.428, 76.816, -44.83, -6.493, -58.413, -78.293, -126.513, 23.75, -0.74463, -0.54556, 0.34335, -0.17291,
 08:17:10.282,f7:68:33:b1:9e:f1, 2015-01-01 01:03:12.520, 0.671, 0.664, 0.128, 2.869, -60.425, -47.119, 77.168, -44.665, -6.976, -58.413, -78.293, -126.513, 23.75, -0.74463, -0.54556, 0.34335, -0.17291,
 08:17:10.283,f7:68:33:b1:9e:f1, 2015-01-01 01:03:12.520, 0.671, 0.664, 0.128, 2.869, -60.425, -47.119, 77.514, -44.495, -7.46, -58.413, -78.293, -126.513, 23.75, -0.74463, -0.54556, 0.34335, -0.17291,
 08:17:10.283,f7:68:33:b1:9e:f1, 2015-01-01 01:03:12.520, 0.671, 0.664, 0.128, 2.869, -60.425, -47.119, 77.855, -44.324, -7.943, -58.413, -78.293, -126.513, 23.75, -0.74463, -0.54556, 0.34335, -0.17291,
 08:17:10.283,f7:68:33:b1:9e:f1, 2015-01-01 01:03:12.520, 0.747, 0.664, 0.128, 2.869, -60.425, -47.119, 78.195, -44.154, -8.421, -58.413, -78.293, -126.513, 23.75, -0.74463, -0.54556, 0.34335, -0.17291,
 08:17:10.303,f7:68:33:b1:9e:f1, 2015-01-01 01:03:12.520, 0.747, 0.771, 0.083, -31.433, -16.235, -90.881, 78.19, -43.731, -8.646, -58.413, -78.293, -126.513, 23.75, -0.74463, -0.54556, 0.34335, -0.17291,
 08:17:10.303,f7:68:33:b1:9e:f1, 2015-01-01 01:03:12.520, 0.747, 0.771, 0.083, -31.433, -16.235, -90.881, 78.179, -43.303, -8.871, -58.413, -78.293, -126.513, 23.75, -0.74463, -0.54556, 0.34335, -0.17291,
 08:17:10.303,f7:68:33:b1:9e:f1, 2015-01-01 01:03:12.520, 0.747, 0.771, 0.083, -31.433, -16.235, -90.881, 78.168, -42.88, -9.097, -58.413, -78.293, -126.513, 23.75, -0.74463, -0.54556, 0.34335, -0.17291,
 08:17:10.303,f7:68:33:b1:9e:f1, 2015-01-01 01:03:12.520, 0.81, 0.771, 0.083, -31.433, -16.235, -90.881, 78.157, -42.457, -9.316, -58.413, -78.293, -126.513, 23.75, -0.74463, -0.54556, 0.34335, -0.17291,
 08:17:10.303,f7:68:33:b1:9e:f1, 2015-01-01 01:03:12.520, 0.81, 0.641, 0.144, -6.104, 27.832, -65.674, 78.052, -42.122, -9.218, -58.413, -78.293, -126.513, 23.75, -0.74463, -0.54556, 0.34335, -0.17291,
 08:17:10.303,f7:68:33:b1:9e:f1, 2015-01-01 01:03:12.520, 0.81, 0.641, 0.144, -6.104, 27.832, -65.674, 77.948, -41.792, -9.113, -58.413, -78.293, -126.513, 23.75, -0.74463, -0.54556, 0.34335, -0.17291,
 08:17:10.303,f7:68:33:b1:9e:f1, 2015-01-01 01:03:12.520, 0.81, 0.641, 0.144, -6.104, 27.832, -65.674, 77.849, -41.457, -9.014, -58.413, -78.293, -126.513, 23.75, -0.74463, -0.54556, 0.34335, -0.17291,
 08:17:10.304,f7:68:33:b1:9e:f1, 2015-01-01 01:03:12.520, 0.646, 0.641, 0.144, -6.104, 27.832, -65.674, 77.75, -41.127, -8.921, -58.413, -78.293, -126.513, 23.75, -0.74463, -0.54556, 0.34335, -0.17291,
 08:17:10.349,d6:24:01:31:b7:6e, 2015-01-01 00:58:57.015, -0.296, 0.634, 0.691, 46.387, -27.283, -55.481, 52.273, 14.65, -20.435, 11.087, -30.333, -28.213, 25.66, 0.8544, 0.45499, 0.02264, -0.24969,
 08:17:10.364,f7:68:33:b1:9e:f1, 2015-01-01 01:03:12.520, 0.646, 0.889, 0.138, 22.949, 49.438, -8.972, 77.662, -41.056, -8.613, -58.413, -78.293, -126.513, 23.75, -0.74463, -0.54556, 0.34335, -0.17291,
 08:17:10.364,f7:68:33:b1:9e:f1, 2015-01-01 01:03:12.520, 0.646, 0.889, 0.138, 22.949, 49.438, -8.972, 77.574, -40.979, -8.311, -58.413, -78.293, -126.513, 23.75, -0.74463, -0.54556, 0.34335, -0.17291,
 08:17:10.364,f7:68:33:b1:9e:f1, 2015-01-01 01:03:12.520, 0.646, 0.889, 0.138, 22.949, 49.438, -8.972, 77.487, -40.902, -8.004, -58.413, -78.293, -126.513, 23.75, -0.74463, -0.54556, 0.34335, -0.17291,
 08:17:10.364,f7:68:33:b1:9e:f1, 2015-01-01 01:03:12.520, 0.628, 0.889, 0.138, 22.949, 49.438, -8.972, 77.399, -40.825, -7.701, -58.413, -78.293, -126.513, 23.75, -0.74463, -0.54556, 0.34335, -0.17291,
 08:17:10.364,f7:68:33:b1:9e:f1, 2015-01-01 01:03:12.520, 0.628, 0.828, 0.153, 13.55, 41.016, 24.414, 77.278, -40.919, -7.41, -58.413, -78.293, -126.513, 23.75, -0.74463, -0.54556, 0.34335, -0.17291,
 08:17:10.364,f7:68:33:b1:9e:f1, 2015-01-01 01:03:12.520, 0.628, 0.828, 0.153, 13.55, 41.016, 24.414, 77.151, -41.006, -7.119, -58.413, -78.293, -126.513, 23.75, -0.74463, -0.54556, 0.34335, -0.17291,
 08:17:10.365,f7:68:33:b1:9e:f1, 2015-01-01 01:03:12.520, 0.628, 0.828, 0.153, 13.55, 41.016, 24.414, 77.031, -41.094, -6.828, -58.413, -78.293, -126.513, 23.75, -0.74463, -0.54556, 0.34335, -0.17291,
 08:17:10.365,f7:68:33:b1:9e:f1, 2015-01-01 01:03:12.520, 0.618, 0.828, 0.153, 13.55, 41.016, 24.414, 76.904, -41.182, -6.537, -58.413, -78.293, -126.513, 23.75, -0.74463, -0.54556, 0.34335, -0.17291,
 08:17:10.393,f7:68:33:b1:9e:f1, 2015-01-01 01:03:12.520, 0.618, 0.773, 0.169, 8.545, 39.612, 11.169, 76.772, -41.204, -6.268, -58.413, -78.293, -126.513, 23.75, -0.74463, -0.54556, 0.34335, -0.17291,
 08:17:10.393,f7:68:33:b1:9e:f1, 2015-01-01 01:03:12.520, 0.618, 0.773, 0.169, 8.545, 39.612, 11.169, 76.641, -41.221, -6.004, -58.413, -78.293, -126.513, 23.75, -0.74463, -0.54556, 0.34335, -0.17291,
 08:17:10.393,f7:68:33:b1:9e:f1, 2015-01-01 01:03:12.520, 0.618, 0.773, 0.169, 8.545, 39.612, 11.169, 76.503, -41.243, -5.735, -58.413, -78.293, -126.513, 23.75, -0.74463, -0.54556, 0.34335, -0.17291,
 08:17:10.393,f7:68:33:b1:9e:f1, 2015-01-01 01:03:12.520, 0.622, 0.773, 0.169, 8.545, 39.612, 11.169, 76.371, -41.259, -5.471, -58.413, -78.293, -126.513, 23.75, -0.74463, -0.54556, 0.34335, -0.17291,
 08:17:10.393,f7:68:33:b1:9e:f1, 2015-01-01 01:03:12.520, 0.622, 0.726, 0.173, 5.31, 24.475, 11.963, 76.289, -41.292, -5.301, -58.413, -78.293, -126.513, 23.75, -0.74463, -0.54556, 0.34335, -0.17291,
 08:17:10.393,f7:68:33:b1:9e:f1, 2015-01-01 01:03:12.520, 0.622, 0.726, 0.173, 5.31, 24.475, 11.963, 76.201, -41.331, -5.131, -58.413, -78.293, -126.513, 23.75, -0.74463, -0.54556, 0.34335, -0.17291,
 08:17:10.393,f7:68:33:b1:9e:f1, 2015-01-01 01:03:12.520, 0.622, 0.726, 0.173, 5.31, 24.475, 11.963, 76.113, -41.364, -4.96, -58.413, -78.293, -126.513, 23.75, -0.74463, -0.54556, 0.34335, -0.17291,
 08:17:10.394,f7:68:33:b1:9e:f1, 2015-01-01 01:03:12.520, 0.59, 0.726, 0.173, 5.31, 24.475, 11.963, 76.031, -41.402, -4.79, -58.413, -78.293, -126.513, 23.75, -0.74463, -0.54556, 0.34335, -0.17291,
 08:17:10.454,f7:68:33:b1:9e:f1, 2015-01-01 01:03:12.520, 0.59, 0.722, 0.158, 10.132, 21.851, 4.517, 75.987, -41.402, -4.647, -58.413, -78.293, -126.513, 23.75, -0.74463, -0.54556, 0.34335, -0.17291,
 08:17:10.454,f7:68:33:b1:9e:f1, 2015-01-01 01:03:12.520, 0.59, 0.722, 0.158, 10.132, 21.851, 4.517, 75.943, -41.402, -4.504, -58.413, -78.293, -126.513, 23.75, -0.74463, -0.54556, 0.34335, -0.17291,
 08:17:10.454,f7:68:33:b1:9e:f1, 2015-01-01 01:03:12.520, 0.59, 0.722, 0.158, 10.132, 21.851, 4.517, 75.894, -41.396, -4.362, -58.413, -78.293, -126.513, 23.75, -0.74463, -0.54556, 0.34335, -0.17291,
 08:17:10.454,f7:68:33:b1:9e:f1, 2015-01-01 01:03:12.520, 0.613, 0.722, 0.158, 10.132, 21.851, 4.517, 75.85, -41.396, -4.219, -58.413, -78.293, -126.513, 23.75, -0.74463, -0.54556, 0.34335, -0.17291,
 08:17:10.454,f7:68:33:b1:9e:f1, 2015-01-01 01:03:12.520, 0.613, 0.78, 0.189, 8.789, 19.714, 5.92, 75.811, -41.402, -4.087, -58.413, -78.293, -126.513, 23.75, -0.74463, -0.54556, 0.34335, -0.17291,
 08:17:10.454,f7:68:33:b1:9e:f1, 2015-01-01 01:03:12.520, 0.613, 0.78, 0.189, 8.789, 19.714, 5.92, 75.767, -41.413, -3.955, -58.413, -78.293, -126.513, 23.75, -0.74463, -0.54556, 0.34335, -0.17291,
 08:17:10.454,f7:68:33:b1:9e:f1, 2015-01-01 01:03:12.520, 0.613, 0.78, 0.189, 8.789, 19.714, 5.92, 75.723, -41.418, -3.823, -58.413, -78.293, -126.513, 23.75, -0.74463, -0.54556, 0.34335, -0.17291,
 08:17:10.454,f7:68:33:b1:9e:f1, 2015-01-01 01:03:12.520, 0.618, 0.78, 0.189, 8.789, 19.714, 5.92, 75.679, -41.424, -3.691, -58.413, -78.293, -126.513, 23.75, -0.74463, -0.54556, 0.34335, -0.17291,
 08:17:10.467,d6:24:01:31:b7:6e, 2015-01-01 00:58:57.405, -0.026, 0.718, 0.72, -245.422, -84.29, 5.066, 43.171, 14.914, -24.038, 11.087, -30.333, -28.213, 25.66, 0.8544, 0.45499, 0.02264, -0.24969,
 08:17:10.484,f7:68:33:b1:9e:f1, 2015-01-01 01:03:12.520, 0.618, 0.7, 0.211, 10.559, 3.479, 31.555, 75.685, -41.567, -3.631, -58.413, -78.293, -126.513, 23.75, -0.74463, -0.54556, 0.34335, -0.17291,
 08:17:10.484,f7:68:33:b1:9e:f1, 2015-01-01 01:03:12.520, 0.618, 0.7, 0.211, 10.559, 3.479, 31.555, 75.696, -41.715, -3.565, -58.413, -78.293, -126.513, 23.75, -0.74463, -0.54556, 0.34335, -0.17291,
 08:17:10.484,f7:68:33:b1:9e:f1, 2015-01-01 01:03:12.520, 0.618, 0.7, 0.211, 10.559, 3.479, 31.555, 75.701, -41.863, -3.505, -58.413, -78.293, -126.513, 23.75, -0.74463, -0.54556, 0.34335, -0.17291,
 08:17:10.484,f7:68:33:b1:9e:f1, 2015-01-01 01:03:12.520, 0.596, 0.7, 0.211, 10.559, 3.479, 31.555, 75.707, -42.006, -3.439, -58.413, -78.293, -126.513, 23.75, -0.74463, -0.54556, 0.34335, -0.17291,
 08:17:10.484,f7:68:33:b1:9e:f1, 2015-01-01 01:03:12.520, 0.596, 0.6, 0.193, 22.156, 7.751, 33.325, 75.751, -42.16, -3.345, -58.413, -78.293, -126.513, 23.75, -0.74463, -0.54556, 0.34335, -0.17291,
 08:17:10.484,f7:68:33:b1:9e:f1, 2015-01-01 01:03:12.520, 0.596, 0.6, 0.193, 22.156, 7.751, 33.325, 75.795, -42.308, -3.252, -58.413, -78.293, -126.513, 23.75, -0.74463, -0.54556, 0.34335, -0.17291,
 08:17:10.484,f7:68:33:b1:9e:f1, 2015-01-01 01:03:12.520, 0.596, 0.6, 0.193, 22.156, 7.751, 33.325, 75.833, -42.457, -3.159, -58.413, -78.293, -126.513, 23.75, -0.74463, -0.54556, 0.34335, -0.17291,
 08:17:10.484,f7:68:33:b1:9e:f1, 2015-01-01 01:03:12.520, 0.626, 0.6, 0.193, 22.156, 7.751, 33.325, 75.872, -42.61, -3.065, -58.413, -78.293, -126.513, 23.75, -0.74463, -0.54556, 0.34335, -0.17291,
 08:17:10.515,f7:68:33:b1:9e:f1, 2015-01-01 01:03:12.520, 0.626, 0.64, 0.185, 11.841, 14.648, 26.306, 75.839, -42.715, -2.933, -56.427, -73.853, -137.907, 23.75, -0.74463, -0.54556, 0.34335, -0.17291,
 08:17:10.515,f7:68:33:b1:9e:f1, 2015-01-01 01:03:12.520, 0.626, 0.64, 0.185, 11.841, 14.648, 26.306, 75.8, -42.825, -2.807, -56.427, -73.853, -137.907, 23.75, -0.74463, -0.54556, 0.34335, -0.17291,
 08:17:10.515,f7:68:33:b1:9e:f1, 2015-01-01 01:03:12.520, 0.626, 0.64, 0.185, 11.841, 14.648, 26.306, 75.762, -42.935, -2.675, -56.427, -73.853, -137.907, 23.75, -0.74463, -0.54556, 0.34335, -0.17291,
 08:17:10.515,f7:68:33:b1:9e:f1, 2015-01-01 01:03:12.520, 0.709, 0.64, 0.185, 11.841, 14.648, 26.306, 75.729, -43.044, -2.543, -56.427, -73.853, -137.907, 23.75, -0.74463, -0.54556, 0.34335, -0.17291,
 08:17:10.515,f7:68:33:b1:9e:f1, 2015-01-01 01:03:12.520, 0.709, 0.722, 0.2, 11.23, 10.742, 29.236, 75.701, -43.171, -2.433, -56.427, -73.853, -137.907, 23.75, -0.74463, -0.54556, 0.34335, -0.17291,
 08:17:10.515,f7:68:33:b1:9e:f1, 2015-01-01 01:03:12.520, 0.709, 0.722, 0.2, 11.23, 10.742, 29.236, 75.674, -43.297, -2.324, -56.427, -73.853, -137.907, 23.75, -0.74463, -0.54556, 0.34335, -0.17291,
 08:17:10.515,f7:68:33:b1:9e:f1, 2015-01-01 01:03:12.520, 0.709, 0.722, 0.2, 11.23, 10.742, 29.236, 75.646, -43.423, -2.214, -56.427, -73.853, -137.907, 23.75, -0.74463, -0.54556, 0.34335, -0.17291,
 08:17:10.516,f7:68:33:b1:9e:f1, 2015-01-01 01:03:12.520, 0.774, 0.722, 0.2, 11.23, 10.742, 29.236, 75.613, -43.55, -2.104, -56.427, -73.853, -137.907, 23.75, -0.74463, -0.54556, 0.34335, -0.17291,
 08:17:10.527,d6:24:01:31:b7:6e, 2015-01-01 00:58:57.405, 0.015, 0.191, 0.987, -117.249, -4.7, 82.642, 23.763, 8.355, -19.556, 11.087, -30.333, -28.213, 25.66, 0.8544, 0.45499, 0.02264, -0.24969,
 08:17:10.574,f7:68:33:b1:9e:f1, 2015-01-01 01:03:12.520, 0.774, 0.566, 0.187, 12.085, 20.02, 14.771, 75.564, -43.594, -1.95, -56.427, -73.853, -137.907, 23.75, -0.74463, -0.54556, 0.34335, -0.17291,
 08:17:10.574,f7:68:33:b1:9e:f1, 2015-01-01 01:03:12.520, 0.774, 0.566, 0.187, 12.085, 20.02, 14.771, 75.509, -43.643, -1.796, -56.427, -73.853, -137.907, 23.75, -0.74463, -0.54556, 0.34335, -0.17291,
 08:17:10.574,f7:68:33:b1:9e:f1, 2015-01-01 01:03:12.520, 0.774, 0.566, 0.187, 12.085, 20.02, 14.771, 75.454, -43.693, -1.648, -56.427, -73.853, -137.907, 23.75, -0.74463, -0.54556, 0.34335, -0.17291,
 08:17:10.574,f7:68:33:b1:9e:f1, 2015-01-01 01:03:12.520, 0.722, 0.566, 0.187, 12.085, 20.02, 14.771, 75.399, -43.742, -1.494, -56.427, -73.853, -137.907, 23.75, -0.74463, -0.54556, 0.34335, -0.17291,
 08:17:10.574,f7:68:33:b1:9e:f1, 2015-01-01 01:03:12.520, 0.722, 0.517, 0.182, 4.578, 33.875, -7.019, 75.267, -43.671, -1.28, -56.427, -73.853, -137.907, 23.75, -0.74463, -0.54556, 0.34335, -0.17291,
 08:17:10.574,f7:68:33:b1:9e:f1, 2015-01-01 01:03:12.520, 0.722, 0.517, 0.182, 4.578, 33.875, -7.019, 75.135, -43.605, -1.071, -56.427, -73.853, -137.907, 23.75, -0.74463, -0.54556, 0.34335, -0.17291,
 08:17:10.575,f7:68:33:b1:9e:f1, 2015-01-01 01:03:12.520, 0.722, 0.517, 0.182, 4.578, 33.875, -7.019, 75.004, -43.533, -0.857, -56.427, -73.853, -137.907, 23.75, -0.74463, -0.54556, 0.34335, -0.17291,
 08:17:10.575,f7:68:33:b1:9e:f1, 2015-01-01 01:03:12.520, 0.663, 0.517, 0.182, 4.578, 33.875, -7.019, 74.872, -43.467, -0.648, -56.427, -73.853, -137.907, 23.75, -0.74463, -0.54556, 0.34335, -0.17291,
 08:17:10.605,f7:68:33:b1:9e:f1, 2015-01-01 01:03:12.520, 0.663, 0.614, 0.164, 8.911, 44.678, -30.701, 74.74, -43.275, -0.406, -56.427, -73.853, -137.907, 23.75, -0.72861, -0.57565, 0.29791, -0.22107,
 08:17:10.605,f7:68:33:b1:9e:f1, 2015-01-01 01:03:12.520, 0.663, 0.614, 0.164, 8.911, 44.678, -30.701, 74.608, -43.083, -0.159, -56.427, -73.853, -137.907, 23.75, -0.72861, -0.57565, 0.29791, -0.22107,
 08:17:10.605,f7:68:33:b1:9e:f1, 2015-01-01 01:03:12.520, 0.663, 0.614, 0.164, 8.911, 44.678, -30.701, 74.482, -42.885, 0.077, -56.427, -73.853, -137.907, 23.75, -0.72861, -0.57565, 0.29791, -0.22107,
 08:17:10.605,f7:68:33:b1:9e:f1, 2015-01-01 01:03:12.520, 0.573, 0.614, 0.164, 8.911, 44.678, -30.701, 74.355, -42.693, 0.319, -56.427, -73.853, -137.907, 23.75, -0.72861, -0.57565, 0.29791, -0.22107,
 08:17:10.605,f7:68:33:b1:9e:f1, 2015-01-01 01:03:12.520, 0.573, 0.714, 0.176, 18.005, 60.608, -62.378, 74.24, -42.325, 0.61, -56.427, -73.853, -137.907, 23.75, -0.72861, -0.57565, 0.29791, -0.22107,
 08:17:10.606,f7:68:33:b1:9e:f1, 2015-01-01 01:03:12.520, 0.573, 0.714, 0.176, 18.005, 60.608, -62.378, 74.13, -41.962, 0.895, -56.427, -73.853, -137.907, 23.75, -0.72861, -0.57565, 0.29791, -0.22107,
 08:17:10.606,f7:68:33:b1:9e:f1, 2015-01-01 01:03:12.520, 0.573, 0.714, 0.176, 18.005, 60.608, -62.378, 74.02, -41.594, 1.187, -56.427, -73.853, -137.907, 23.75, -0.72861, -0.57565, 0.29791, -0.22107,
 08:17:10.606,f7:68:33:b1:9e:f1, 2015-01-01 01:03:12.520, 0.489, 0.714, 0.176, 18.005, 60.608, -62.378, 73.916, -41.226, 1.467, -56.427, -73.853, -137.907, 23.75, -0.72861, -0.57565, 0.29791, -0.22107,
 08:17:10.634,f7:68:33:b1:9e:f1, 2015-01-01 01:03:12.520, 0.489, 0.732, 0.211, -1.465, 59.021, -41.138, 73.702, -40.963, 1.774, -56.427, -73.853, -137.907, 23.75, -0.72861, -0.57565, 0.29791, -0.22107,
 08:17:10.634,f7:68:33:b1:9e:f1, 2015-01-01 01:03:12.520, 0.489, 0.732, 0.211, -1.465, 59.021, -41.138, 73.493, -40.693, 2.076, -56.427, -73.853, -137.907, 23.75, -0.72861, -0.57565, 0.29791, -0.22107,
 08:17:10.634,f7:68:33:b1:9e:f1, 2015-01-01 01:03:12.520, 0.489, 0.732, 0.211, -1.465, 59.021, -41.138, 73.29, -40.43, 2.379, -56.427, -73.853, -137.907, 23.75, -0.72861, -0.57565, 0.29791, -0.22107,
 08:17:10.634,f7:68:33:b1:9e:f1, 2015-01-01 01:03:12.520, 0.659, 0.732, 0.211, -1.465, 59.021, -41.138, 73.087, -40.161, 2.681, -56.427, -73.853, -137.907, 23.75, -0.72861, -0.57565, 0.29791, -0.22107,
 08:17:10.634,f7:68:33:b1:9e:f1, 2015-01-01 01:03:12.520, 0.659, 0.522, 0.231, -11.78, 66.162, 27.954, 72.724, -40.215, 3.137, -56.427, -73.853, -137.907, 23.75, -0.72861, -0.57565, 0.29791, -0.22107,
 08:17:10.634,f7:68:33:b1:9e:f1, 2015-01-01 01:03:12.520, 0.659, 0.522, 0.231, -11.78, 66.162, 27.954, 72.367, -40.265, 3.598, -56.427, -73.853, -137.907, 23.75, -0.72861, -0.57565, 0.29791, -0.22107,
 08:17:10.634,f7:68:33:b1:9e:f1, 2015-01-01 01:03:12.520, 0.739, 0.522, 0.231, -11.78, 66.162, 27.954, 72.004, -40.32, 4.059, -56.427, -73.853, -137.907, 23.75, -0.72861, -0.57565, 0.29791, -0.22107,
 08:17:10.634,f7:68:33:b1:9e:f1, 2015-01-01 01:03:12.520, 0.739, 0.57, 0.293, -33.691, 62.317, 68.665, 71.499, -40.567, 4.576, -56.427, -73.853, -137.907, 23.75, -0.72861, -0.57565, 0.29791, -0.22107,
 08:17:10.647,d6:24:01:31:b7:6e, 2015-01-01 00:58:57.405, -0.174, 0.187, 1.084, -16.052, -10.498, -40.588, 13.991, 5.136, -14.238, 3.360, -1.027, -44.240, 25.66, 0.8544, 0.45499, 0.02264, -0.24969,
 08:17:10.693,f7:68:33:b1:9e:f1, 2015-01-01 01:03:12.905, 0.739, 0.57, 0.293, -33.691, 62.317, 68.665, 70.994, -40.814, 5.098, -56.427, -73.853, -137.907, 23.75, -0.72861, -0.57565, 0.29791, -0.22107,
 08:17:10.693,f7:68:33:b1:9e:f1, 2015-01-01 01:03:12.905, 0.739, 0.57, 0.293, -33.691, 62.317, 68.665, 70.477, -41.061, 5.62, -56.427, -73.853, -137.907, 23.75, -0.72861, -0.57565, 0.29791, -0.22107,
 08:17:10.693,f7:68:33:b1:9e:f1, 2015-01-01 01:03:12.905, 0.766, 0.57, 0.293, -33.691, 62.317, 68.665, 69.961, -41.298, 6.147, -56.427, -73.853, -137.907, 23.75, -0.72861, -0.57565, 0.29791, -0.22107,
 08:17:10.693,f7:68:33:b1:9e:f1, 2015-01-01 01:03:12.905, 0.766, 0.414, 0.229, -33.752, 57.312, 83.984, 69.434, -41.616, 6.685, -56.427, -73.853, -137.907, 23.75, -0.72861, -0.57565, 0.29791, -0.22107,
 08:17:10.693,f7:68:33:b1:9e:f1, 2015-01-01 01:03:12.905, 0.766, 0.414, 0.229, -33.752, 57.312, 83.984, 68.906, -41.935, 7.224, -56.427, -73.853, -137.907, 23.75, -0.72861, -0.57565, 0.29791, -0.22107,
 08:17:10.693,f7:68:33:b1:9e:f1, 2015-01-01 01:03:12.905, 0.766, 0.414, 0.229, -33.752, 57.312, 83.984, 68.368, -42.248, 7.773, -56.427, -73.853, -137.907, 23.75, -0.72861, -0.57565, 0.29791, -0.22107,
 08:17:10.693,f7:68:33:b1:9e:f1, 2015-01-01 01:03:12.905, 0.721, 0.414, 0.229, -33.752, 57.312, 83.984, 67.824, -42.556, 8.328, -56.427, -73.853, -137.907, 23.75, -0.72861, -0.57565, 0.29791, -0.22107,
 08:17:10.693,f7:68:33:b1:9e:f1, 2015-01-01 01:03:12.905, 0.721, 0.467, 0.228, -1.587, 45.654, 90.393, 67.478, -42.913, 8.833, -56.427, -73.853, -137.907, 23.75, -0.72861, -0.57565, 0.29791, -0.22107,
 08:17:10.723,f7:68:33:b1:9e:f1, 2015-01-01 01:03:12.905, 0.721, 0.467, 0.228, -1.587, 45.654, 90.393, 67.121, -43.264, 9.338, -56.427, -73.853, -137.907, 23.75, -0.72861, -0.57565, 0.29791, -0.22107,
 08:17:10.723,f7:68:33:b1:9e:f1, 2015-01-01 01:03:12.905, 0.721, 0.467, 0.228, -1.587, 45.654, 90.393, 66.764, -43.621, 9.855, -56.427, -73.853, -137.907, 23.75, -0.72861, -0.57565, 0.29791, -0.22107,
 08:17:10.723,f7:68:33:b1:9e:f1, 2015-01-01 01:03:12.905, 0.706, 0.467, 0.228, -1.587, 45.654, 90.393, 66.396, -43.967, 10.377, -56.427, -73.853, -137.907, 23.75, -0.72861, -0.57565, 0.29791, -0.22107,
 08:17:10.723,f7:68:33:b1:9e:f1, 2015-01-01 01:03:12.905, 0.706, 0.67, 0.26, 17.273, 36.499, 68.176, 66.204, -44.231, 10.783, -56.427, -73.853, -137.907, 23.75, -0.72861, -0.57565, 0.29791, -0.22107,
 08:17:10.723,f7:68:33:b1:9e:f1, 2015-01-01 01:03:12.905, 0.706, 0.67, 0.26, 17.273, 36.499, 68.176, 66, -44.484, 11.195, -56.427, -73.853, -137.907, 23.75, -0.72861, -0.57565, 0.29791, -0.22107,
 08:17:10.723,f7:68:33:b1:9e:f1, 2015-01-01 01:03:12.905, 0.706, 0.67, 0.26, 17.273, 36.499, 68.176, 65.803, -44.742, 11.613, -56.427, -73.853, -137.907, 23.75, -0.72861, -0.57565, 0.29791, -0.22107,
 08:17:10.724,f7:68:33:b1:9e:f1, 2015-01-01 01:03:12.905, 0.802, 0.67, 0.26, 17.273, 36.499, 68.176, 65.599, -44.995, 12.03, -56.427, -73.853, -137.907, 23.75, -0.72861, -0.57565, 0.29791, -0.22107,
 08:17:10.724,f7:68:33:b1:9e:f1, 2015-01-01 01:03:12.905, 0.802, 0.658, 0.273, 25.696, 24.231, 17.273, 65.588, -45.038, 12.233, -56.427, -73.853, -137.907, 23.75, -0.72861, -0.57565, 0.29791, -0.22107,
 08:17:10.736,d6:24:01:31:b7:6e, 2015-01-01 00:58:57.760, -0.081, 0.12, 0.968, 112.854, 32.837, -177.795, 17.54, 8.943, -23.978, 3.360, -1.027, -44.240, 25.66, 0.96127, 0.1647, 0.04382, -0.21628,
 08:17:10.752,f7:68:33:b1:9e:f1, 2015-01-01 01:03:12.905, 0.802, 0.658, 0.273, 25.696, 24.231, 17.273, 65.572, -45.077, 12.431, -56.427, -73.853, -137.907, 23.75, -0.72861, -0.57565, 0.29791, -0.22107,
 08:17:10.752,f7:68:33:b1:9e:f1, 2015-01-01 01:03:12.905, 0.802, 0.658, 0.273, 25.696, 24.231, 17.273, 65.561, -45.121, 12.634, -56.427, -73.853, -137.907, 23.75, -0.72861, -0.57565, 0.29791, -0.22107,
 08:17:10.752,f7:68:33:b1:9e:f1, 2015-01-01 01:03:12.905, 0.821, 0.658, 0.273, 25.696, 24.231, 17.273, 65.55, -45.159, 12.838, -56.427, -73.853, -137.907, 23.75, -0.72861, -0.57565, 0.29791, -0.22107,
 08:17:10.752,f7:68:33:b1:9e:f1, 2015-01-01 01:03:12.905, 0.821, 0.562, 0.278, 18.433, -13.977, -1.77, 65.715, -45.187, 12.739, -56.427, -73.853, -137.907, 23.75, -0.72861, -0.57565, 0.29791, -0.22107,
 08:17:10.752,f7:68:33:b1:9e:f1, 2015-01-01 01:03:12.905, 0.821, 0.562, 0.278, 18.433, -13.977, -1.77, 65.874, -45.214, 12.64, -56.427, -73.853, -137.907, 23.75, -0.72861, -0.57565, 0.29791, -0.22107,
 08:17:10.752,f7:68:33:b1:9e:f1, 2015-01-01 01:03:12.905, 0.821, 0.562, 0.278, 18.433, -13.977, -1.77, 66.039, -45.242, 12.541, -56.427, -73.853, -137.907, 23.75, -0.72861, -0.57565, 0.29791, -0.22107,
 08:17:10.752,f7:68:33:b1:9e:f1, 2015-01-01 01:03:12.905, 0.75, 0.562, 0.278, 18.433, -13.977, -1.77, 66.198, -45.269, 12.442, -56.427, -73.853, -137.907, 23.75, -0.72861, -0.57565, 0.29791, -0.22107,
 08:17:10.753,f7:68:33:b1:9e:f1, 2015-01-01 01:03:12.905, 0.75, 0.728, 0.316, 14.343, -68.054, -85.815, 66.742, -45.011, 11.772, -56.427, -73.853, -137.907, 23.75, -0.72861, -0.57565, 0.29791, -0.22107,
 08:17:10.813,f7:68:33:b1:9e:f1, 2015-01-01 01:03:12.905, 0.75, 0.728, 0.316, 14.343, -68.054, -85.815, 67.275, -44.742, 11.102, -56.427, -73.853, -137.907, 23.75, -0.72861, -0.57565, 0.29791, -0.22107,
 08:17:10.813,f7:68:33:b1:9e:f1, 2015-01-01 01:03:12.905, 0.75, 0.728, 0.316, 14.343, -68.054, -85.815, 67.802, -44.473, 10.443, -56.427, -73.853, -137.907, 23.75, -0.72861, -0.57565, 0.29791, -0.22107,
 08:17:10.813,f7:68:33:b1:9e:f1, 2015-01-01 01:03:12.905, 0.701, 0.728, 0.316, 14.343, -68.054, -85.815, 68.318, -44.198, 9.789, -56.427, -73.853, -137.907, 23.75, -0.72861, -0.57565, 0.29791, -0.22107,
 08:17:10.813,f7:68:33:b1:9e:f1, 2015-01-01 01:03:12.905, 0.701, 1.165, 0.172, 52.612, -66.406, -258.118, 69.28, -43.099, 8.762, -56.427, -73.853, -137.907, 23.75, -0.72861, -0.57565, 0.29791, -0.22107,
 08:17:10.814,f7:68:33:b1:9e:f1, 2015-01-01 01:03:12.905, 0.701, 1.165, 0.172, 52.612, -66.406, -258.118, 70.192, -41.99, 7.778, -56.427, -73.853, -137.907, 23.75, -0.72861, -0.57565, 0.29791, -0.22107,
 08:17:10.814,f7:68:33:b1:9e:f1, 2015-01-01 01:03:12.905, 0.701, 1.165, 0.172, 52.612, -66.406, -258.118, 71.071, -40.875, 6.833, -56.427, -73.853, -137.907, 23.75, -0.72861, -0.57565, 0.29791, -0.22107,
 08:17:10.814,f7:68:33:b1:9e:f1, 2015-01-01 01:03:12.905, 0.132, 1.165, 0.172, 52.612, -66.406, -258.118, 71.906, -39.743, 5.933, -56.427, -73.853, -137.907, 23.75, -0.72861, -0.57565, 0.29791, -0.22107,
 08:17:10.814,f7:68:33:b1:9e:f1, 2015-01-01 01:03:12.905, 0.132, 1.351, 0.159, 95.703, -28.503, -164.795, 72.675, -38.996, 5.46, -56.427, -73.853, -137.907, 23.75, -0.72861, -0.57565, 0.29791, -0.22107,
 08:17:10.844,f7:68:33:b1:9e:f1, 2015-01-01 01:03:12.905, 0.132, 1.351, 0.159, 95.703, -28.503, -164.795, 73.427, -38.243, 5.004, -56.427, -73.853, -137.907, 23.75, -0.72861, -0.57565, 0.29791, -0.22107,
