Time,Device name,Chip Time(),Acceleration X(g),Acceleration Y(g),Acceleration Z(g),Angular velocity X(°/s),Angular velocity Y(°/s),Angular velocity Z(°/s),Angle X(°),Angle Y(°),Angle Z(°),Magnetic field X(ʯt),Magnetic field Y(ʯt),Magnetic field Z(ʯt),Temperature(℃),Quaternions 0(),Quaternions 1(),Quaternions 2(),Quaternions 3()
 08:15:37.547,f7:68:33:b1:9e:f1, 2015-01-01 01:01:40.225, -0.646, 0.708, 0.303, 0.122, -1.16, -0.916, 63.77, 39.249, -11.453, 15.007, -74.767, -144.140, 21.37, -0.77023, -0.53491, -0.23227, 0.25797,
 08:15:37.548,f7:68:33:b1:9e:f1, 2015-01-01 01:01:40.225, -0.644, 0.708, 0.303, 0.122, -1.16, -0.916, 63.77, 39.254, -11.464, 15.007, -74.767, -144.140, 21.37, -0.77023, -0.53491, -0.23227, 0.25797,
 08:15:37.548,f7:68:33:b1:9e:f1, 2015-01-01 01:01:40.225, -0.644, 0.707, 0.304, -0.427, -0.671, -1.038, 63.765, 39.254, -11.475, 15.007, -74.767, -144.140, 21.37, -0.77023, -0.53491, -0.23227, 0.25797,
 08:15:37.549,f7:68:33:b1:9e:f1, 2015-01-01 01:01:40.225, -0.644, 0.707, 0.304, -0.427, -0.671, -1.038, 63.765, 39.26, -11.486, 15.007, -74.767, -144.140, 21.37, -0.77023, -0.53491, -0.23227, 0.25797,
 08:15:37.549,f7:68:33:b1:9e:f1, 2015-01-01 01:01:40.225, -0.644, 0.707, 0.304, -0.427, -0.671, -1.038, 63.759, 39.265, -11.492, 15.007, -74.767, -144.140, 21.37, -0.77023, -0.53491, -0.23227, 0.25797,
 08:15:37.549,f7:68:33:b1:9e:f1, 2015-01-01 01:01:40.225, -0.644, 0.707, 0.304, -0.427, -0.671, -1.038, 63.759, 39.271, -11.503, 15.007, -74.767, -144.140, 21.37, -0.77023, -0.53491, -0.23227, 0.25797,
 08:15:37.549,f7:68:33:b1:9e:f1, 2015-01-01 01:01:40.225, -0.644, 0.709, 0.309, -0.916, -0.244, -1.16, 63.754, 39.276, -11.508, 15.007, -74.767, -144.140, 21.37, -0.77023, -0.53491, -0.23227, 0.25797,
 08:15:37.549,f7:68:33:b1:9e:f1, 2015-01-01 01:01:40.225, -0.644, 0.709, 0.309, -0.916, -0.244, -1.16, 63.748, 39.282, -11.519, 15.007, -74.767, -144.140, 21.37, -0.77023, -0.53491, -0.23227, 0.25797,
 08:15:37.605,f7:68:33:b1:9e:f1, 2015-01-01 01:01:40.225, -0.644, 0.709, 0.309, -0.916, -0.244, -1.16, 63.748, 39.287, -11.525, 15.007, -74.767, -144.140, 21.37, -0.77023, -0.53491, -0.23227, 0.25797,
 08:15:37.606,f7:68:33:b1:9e:f1, 2015-01-01 01:01:40.225, -0.646, 0.709, 0.309, -0.916, -0.244, -1.16, 63.743, 39.293, -11.53, 15.007, -74.767, -144.140, 21.37, -0.77023, -0.53491, -0.23227, 0.25797,
 08:15:37.606,f7:68:33:b1:9e:f1, 2015-01-01 01:01:40.225, -0.646, 0.709, 0.312, -0.244, -0.549, -1.16, 63.743, 39.298, -11.541, 15.007, -74.767, -144.140, 21.37, -0.77023, -0.53491, -0.23227, 0.25797,
 08:15:37.607,f7:68:33:b1:9e:f1, 2015-01-01 01:01:40.225, -0.646, 0.709, 0.312, -0.244, -0.549, -1.16, 63.737, 39.304, -11.547, 15.007, -74.767, -144.140, 21.37, -0.77023, -0.53491, -0.23227, 0.25797,
 08:15:37.607,f7:68:33:b1:9e:f1, 2015-01-01 01:01:40.225, -0.646, 0.709, 0.312, -0.244, -0.549, -1.16, 63.737, 39.309, -11.558, 15.007, -74.767, -144.140, 21.37, -0.77023, -0.53491, -0.23227, 0.25797,
 08:15:37.607,f7:68:33:b1:9e:f1, 2015-01-01 01:01:40.225, -0.644, 0.709, 0.312, -0.244, -0.549, -1.16, 63.732, 39.309, -11.563, 15.007, -74.767, -144.140, 21.37, -0.77023, -0.53491, -0.23227, 0.25797,
 08:15:37.607,f7:68:33:b1:9e:f1, 2015-01-01 01:01:40.225, -0.644, 0.707, 0.307, 0.427, -1.038, -1.099, 63.732, 39.315, -11.574, 15.007, -74.767, -144.140, 21.37, -0.77023, -0.53491, -0.23227, 0.25797,
 08:15:37.607,f7:68:33:b1:9e:f1, 2015-01-01 01:01:40.225, -0.644, 0.707, 0.307, 0.427, -1.038, -1.099, 63.732, 39.32, -11.585, 15.007, -74.767, -144.140, 21.37, -0.77023, -0.53491, -0.23227, 0.25797,
 08:15:37.619,d6:24:01:31:b7:6e, 2015-01-01 00:57:25.260, -0.641, -0.337, 0.72, 1.465, 0, -1.038, -24.653, 38.71, -105.007, 3.593, 10.693, -29.653, 23.21, 0.61716, 0.13428, 0.35687, -0.6882,
 08:15:37.636,f7:68:33:b1:9e:f1, 2015-01-01 01:01:40.225, -0.644, 0.707, 0.307, 0.427, -1.038, -1.099, 63.732, 39.32, -11.596, 15.007, -74.767, -144.140, 21.37, -0.76892, -0.53558, -0.23114, 0.26144,
 08:15:37.636,f7:68:33:b1:9e:f1, 2015-01-01 01:01:40.225, -0.646, 0.707, 0.307, 0.427, -1.038, -1.099, 63.732, 39.326, -11.613, 15.007, -74.767, -144.140, 21.37, -0.76892, -0.53558, -0.23114, 0.26144,
 08:15:37.636,f7:68:33:b1:9e:f1, 2015-01-01 01:01:40.225, -0.646, 0.704, 0.304, -0.244, -0.732, -0.977, 63.732, 39.331, -11.618, 15.007, -74.767, -144.140, 21.37, -0.76892, -0.53558, -0.23114, 0.26144,
 08:15:37.636,f7:68:33:b1:9e:f1, 2015-01-01 01:01:40.225, -0.646, 0.704, 0.304, -0.244, -0.732, -0.977, 63.726, 39.331, -11.629, 15.007, -74.767, -144.140, 21.37, -0.76892, -0.53558, -0.23114, 0.26144,
 08:15:37.636,f7:68:33:b1:9e:f1, 2015-01-01 01:01:40.225, -0.646, 0.704, 0.304, -0.244, -0.732, -0.977, 63.726, 39.337, -11.64, 15.007, -74.767, -144.140, 21.37, -0.76892, -0.53558, -0.23114, 0.26144,
 08:15:37.636,f7:68:33:b1:9e:f1, 2015-01-01 01:01:40.225, -0.647, 0.704, 0.304, -0.244, -0.732, -0.977, 63.721, 39.342, -11.646, 15.007, -74.767, -144.140, 21.37, -0.76892, -0.53558, -0.23114, 0.26144,
 08:15:37.636,f7:68:33:b1:9e:f1, 2015-01-01 01:01:40.225, -0.647, 0.707, 0.307, -0.671, -0.61, -0.732, 63.721, 39.342, -11.656, 15.007, -74.767, -144.140, 21.37, -0.76892, -0.53558, -0.23114, 0.26144,
 08:15:37.636,f7:68:33:b1:9e:f1, 2015-01-01 01:01:40.225, -0.647, 0.707, 0.307, -0.671, -0.61, -0.732, 63.715, 39.348, -11.662, 15.007, -74.767, -144.140, 21.37, -0.76892, -0.53558, -0.23114, 0.26144,
 08:15:37.665,f7:68:33:b1:9e:f1, 2015-01-01 01:01:40.225, -0.647, 0.707, 0.307, -0.671, -0.61, -0.732, 63.71, 39.353, -11.667, 15.007, -74.767, -144.140, 21.37, -0.76892, -0.53558, -0.23114, 0.26144,
 08:15:37.665,f7:68:33:b1:9e:f1, 2015-01-01 01:01:40.225, -0.645, 0.707, 0.307, -0.671, -0.61, -0.732, 63.71, 39.353, -11.678, 15.007, -74.767, -144.140, 21.37, -0.76892, -0.53558, -0.23114, 0.26144,
 08:15:37.665,f7:68:33:b1:9e:f1, 2015-01-01 01:01:40.225, -0.645, 0.708, 0.307, -0.305, -0.732, -0.671, 63.704, 39.359, -11.684, 15.007, -74.767, -144.140, 21.37, -0.76892, -0.53558, -0.23114, 0.26144,
 08:15:37.665,f7:68:33:b1:9e:f1, 2015-01-01 01:01:40.225, -0.645, 0.708, 0.307, -0.305, -0.732, -0.671, 63.704, 39.359, -11.695, 15.007, -74.767, -144.140, 21.37, -0.76892, -0.53558, -0.23114, 0.26144,
 08:15:37.665,f7:68:33:b1:9e:f1, 2015-01-01 01:01:40.225, -0.645, 0.708, 0.307, -0.305, -0.732, -0.671, 63.699, 39.364, -11.7, 15.007, -74.767, -144.140, 21.37, -0.76892, -0.53558, -0.23114, 0.26144,
 08:15:37.665,f7:68:33:b1:9e:f1, 2015-01-01 01:01:40.225, -0.642, 0.708, 0.307, -0.305, -0.732, -0.671, 63.699, 39.364, -11.711, 15.007, -74.767, -144.140, 21.37, -0.76892, -0.53558, -0.23114, 0.26144,
 08:15:37.665,f7:68:33:b1:9e:f1, 2015-01-01 01:01:40.225, -0.642, 0.71, 0.306, -0.427, -0.916, -0.549, 63.693, 39.364, -11.722, 15.007, -74.767, -144.140, 21.37, -0.76892, -0.53558, -0.23114, 0.26144,
 08:15:37.665,f7:68:33:b1:9e:f1, 2015-01-01 01:01:40.225, -0.642, 0.71, 0.306, -0.427, -0.916, -0.549, 63.693, 39.37, -11.728, 15.007, -74.767, -144.140, 21.37, -0.76892, -0.53558, -0.23114, 0.26144,
 08:15:37.678,d6:24:01:31:b7:6e, 2015-01-01 00:57:25.260, -0.646, -0.337, 0.722, 1.16, -0.244, -0.977, -24.67, 38.639, -104.788, 3.593, 10.693, -29.653, 23.21, 0.61716, 0.13428, 0.35687, -0.6882,
 08:15:37.724,f7:68:33:b1:9e:f1, 2015-01-01 01:01:40.585, -0.642, 0.71, 0.306, -0.427, -0.916, -0.549, 63.688, 39.37, -11.739, 15.007, -74.767, -144.140, 21.37, -0.76892, -0.53558, -0.23114, 0.26144,
 08:15:37.724,f7:68:33:b1:9e:f1, 2015-01-01 01:01:40.585, -0.641, 0.71, 0.306, -0.427, -0.916, -0.549, 63.688, 39.37, -11.744, 15.007, -74.767, -144.140, 21.37, -0.76892, -0.53558, -0.23114, 0.26144,
 08:15:37.724,f7:68:33:b1:9e:f1, 2015-01-01 01:01:40.585, -0.641, 0.712, 0.309, -0.61, -0.549, -0.916, 63.682, 39.375, -11.755, 15.007, -74.767, -144.140, 21.37, -0.76892, -0.53558, -0.23114, 0.26144,
 08:15:37.724,f7:68:33:b1:9e:f1, 2015-01-01 01:01:40.585, -0.641, 0.712, 0.309, -0.61, -0.549, -0.916, 63.677, 39.38, -11.761, 15.007, -74.767, -144.140, 21.37, -0.76892, -0.53558, -0.23114, 0.26144,
 08:15:37.724,f7:68:33:b1:9e:f1, 2015-01-01 01:01:40.585, -0.641, 0.712, 0.309, -0.61, -0.549, -0.916, 63.677, 39.38, -11.772, 15.007, -74.767, -144.140, 21.37, -0.76892, -0.53558, -0.23114, 0.26144,
 08:15:37.724,f7:68:33:b1:9e:f1, 2015-01-01 01:01:40.585, -0.642, 0.712, 0.309, -0.61, -0.549, -0.916, 63.671, 39.386, -11.777, 15.007, -74.767, -144.140, 21.37, -0.76892, -0.53558, -0.23114, 0.26144,
 08:15:37.724,f7:68:33:b1:9e:f1, 2015-01-01 01:01:40.585, -0.642, 0.713, 0.31, 0, -1.16, -0.916, 63.671, 39.386, -11.788, 15.007, -74.767, -144.140, 21.37, -0.76892, -0.53558, -0.23114, 0.26144,
 08:15:37.724,f7:68:33:b1:9e:f1, 2015-01-01 01:01:40.585, -0.642, 0.713, 0.31, 0, -1.16, -0.916, 63.666, 39.391, -11.799, 15.007, -74.767, -144.140, 21.37, -0.76892, -0.53558, -0.23114, 0.26144,
 08:15:37.756,f7:68:33:b1:9e:f1, 2015-01-01 01:01:40.585, -0.642, 0.713, 0.31, 0, -1.16, -0.916, 63.666, 39.391, -11.81, 15.007, -74.767, -144.140, 21.37, -0.76892, -0.53558, -0.23114, 0.26144,
 08:15:37.756,f7:68:33:b1:9e:f1, 2015-01-01 01:01:40.585, -0.638, 0.713, 0.31, 0, -1.16, -0.916, 63.66, 39.397, -11.821, 15.007, -74.767, -144.140, 21.37, -0.76892, -0.53558, -0.23114, 0.26144,
 08:15:37.756,f7:68:33:b1:9e:f1, 2015-01-01 01:01:40.585, -0.638, 0.712, 0.307, 0.488, -1.404, -1.221, 63.66, 39.397, -11.838, 15.007, -74.767, -144.140, 21.37, -0.76892, -0.53558, -0.23114, 0.26144,
 08:15:37.756,f7:68:33:b1:9e:f1, 2015-01-01 01:01:40.585, -0.638, 0.712, 0.307, 0.488, -1.404, -1.221, 63.66, 39.402, -11.849, 15.007, -74.767, -144.140, 21.37, -0.76892, -0.53558, -0.23114, 0.26144,
 08:15:37.756,f7:68:33:b1:9e:f1, 2015-01-01 01:01:40.585, -0.638, 0.712, 0.307, 0.488, -1.404, -1.221, 63.655, 39.402, -11.865, 15.007, -74.767, -144.140, 21.37, -0.76892, -0.53558, -0.23114, 0.26144,
 08:15:37.756,f7:68:33:b1:9e:f1, 2015-01-01 01:01:40.585, -0.639, 0.712, 0.307, 0.488, -1.404, -1.221, 63.655, 39.408, -11.876, 15.007, -74.767, -144.140, 21.37, -0.76892, -0.53558, -0.23114, 0.26144,
 08:15:37.756,f7:68:33:b1:9e:f1, 2015-01-01 01:01:40.585, -0.639, 0.711, 0.303, 0.244, -0.183, -2.441, 63.655, 39.419, -11.887, 15.007, -74.767, -144.140, 21.37, -0.76892, -0.53558, -0.23114, 0.26144,
 08:15:37.756,f7:68:33:b1:9e:f1, 2015-01-01 01:01:40.585, -0.639, 0.711, 0.303, 0.244, -0.183, -2.441, 63.655, 39.43, -11.898, 15.007, -74.767, -144.140, 21.37, -0.76892, -0.53558, -0.23114, 0.26144,
 08:15:37.785,f7:68:33:b1:9e:f1, 2015-01-01 01:01:40.585, -0.639, 0.711, 0.303, 0.244, -0.183, -2.441, 63.655, 39.441, -11.909, 15.007, -74.767, -144.140, 21.37, -0.76892, -0.53558, -0.23114, 0.26144,
 08:15:37.785,f7:68:33:b1:9e:f1, 2015-01-01 01:01:40.585, -0.638, 0.711, 0.303, 0.244, -0.183, -2.441, 63.655, 39.452, -11.915, 15.007, -74.767, -144.140, 21.37, -0.76892, -0.53558, -0.23114, 0.26144,
 08:15:37.785,f7:68:33:b1:9e:f1, 2015-01-01 01:01:40.585, -0.638, 0.713, 0.306, -0.244, -0.977, -1.892, 63.649, 39.457, -11.931, 15.007, -74.767, -144.140, 21.37, -0.76892, -0.53558, -0.23114, 0.26144,
 08:15:37.785,f7:68:33:b1:9e:f1, 2015-01-01 01:01:40.585, -0.638, 0.713, 0.306, -0.244, -0.977, -1.892, 63.644, 39.463, -11.942, 15.007, -74.767, -144.140, 21.37, -0.76892, -0.53558, -0.23114, 0.26144,
 08:15:37.785,f7:68:33:b1:9e:f1, 2015-01-01 01:01:40.585, -0.638, 0.713, 0.306, -0.244, -0.977, -1.892, 63.644, 39.468, -11.953, 15.007, -74.767, -144.140, 21.37, -0.76892, -0.53558, -0.23114, 0.26144,
 08:15:37.785,f7:68:33:b1:9e:f1, 2015-01-01 01:01:40.585, -0.638, 0.713, 0.306, -0.244, -0.977, -1.892, 63.638, 39.479, -11.97, 15.007, -74.767, -144.140, 21.37, -0.76892, -0.53558, -0.23114, 0.26144,
 08:15:37.785,f7:68:33:b1:9e:f1, 2015-01-01 01:01:40.585, -0.638, 0.714, 0.306, 0.305, -1.648, -2.747, 63.633, 39.485, -11.986, 15.007, -74.767, -144.140, 21.37, -0.76892, -0.53558, -0.23114, 0.26144,
 08:15:37.785,f7:68:33:b1:9e:f1, 2015-01-01 01:01:40.585, -0.638, 0.714, 0.306, 0.305, -1.648, -2.747, 63.627, 39.496, -12.008, 15.007, -74.767, -144.140, 21.37, -0.76892, -0.53558, -0.23114, 0.26144,
 08:15:37.829,d6:24:01:31:b7:6e, 2015-01-01 00:57:25.260, -0.647, -0.335, 0.72, 0.122, -0.854, -0.854, -24.67, 38.578, -104.661, 3.593, 10.693, -29.653, 23.21, 0.61716, 0.13428, 0.35687, -0.6882,
 08:15:37.845,f7:68:33:b1:9e:f1, 2015-01-01 01:01:40.585, -0.638, 0.714, 0.306, 0.305, -1.648, -2.747, 63.622, 39.501, -12.025, 15.007, -74.767, -144.140, 21.37, -0.76892, -0.53558, -0.23114, 0.26144,
 08:15:37.845,f7:68:33:b1:9e:f1, 2015-01-01 01:01:40.585, -0.64, 0.714, 0.306, 0.305, -1.648, -2.747, 63.616, 39.512, -12.047, 15.007, -74.767, -144.140, 21.37, -0.76892, -0.53558, -0.23114, 0.26144,
 08:15:37.845,f7:68:33:b1:9e:f1, 2015-01-01 01:01:40.585, -0.64, 0.71, 0.303, 0.488, -2.258, -2.991, 63.605, 39.523, -12.068, 15.007, -74.767, -144.140, 21.37, -0.76892, -0.53558, -0.23114, 0.26144,
 08:15:37.845,f7:68:33:b1:9e:f1, 2015-01-01 01:01:40.585, -0.64, 0.71, 0.303, 0.488, -2.258, -2.991, 63.6, 39.529, -12.09, 15.007, -74.767, -144.140, 21.37, -0.76892, -0.53558, -0.23114, 0.26144,
 08:15:37.845,f7:68:33:b1:9e:f1, 2015-01-01 01:01:40.585, -0.64, 0.71, 0.303, 0.488, -2.258, -2.991, 63.594, 39.54, -12.112, 15.007, -74.767, -144.140, 21.37, -0.76892, -0.53558, -0.23114, 0.26144,
 08:15:37.845,f7:68:33:b1:9e:f1, 2015-01-01 01:01:40.585, -0.64, 0.707, 0.302, 0.183, -2.625, -2.991, 63.583, 39.545, -12.14, 15.007, -74.767, -144.140, 21.37, -0.76892, -0.53558, -0.23114, 0.26144,
 08:15:37.845,f7:68:33:b1:9e:f1, 2015-01-01 01:01:40.585, -0.64, 0.707, 0.302, 0.183, -2.625, -2.991, 63.572, 39.551, -12.167, 15.007, -74.767, -144.140, 21.37, -0.76892, -0.53558, -0.23114, 0.26144,
 08:15:37.845,f7:68:33:b1:9e:f1, 2015-01-01 01:01:40.585, -0.64, 0.707, 0.302, 0.183, -2.625, -2.991, 63.561, 39.562, -12.189, 15.007, -74.767, -144.140, 21.37, -0.76892, -0.53558, -0.23114, 0.26144,
 08:15:37.878,f7:68:33:b1:9e:f1, 2015-01-01 01:01:40.585, -0.64, 0.707, 0.302, 0.183, -2.625, -2.991, 63.55, 39.567, -12.217, 15.007, -74.767, -144.140, 21.37, -0.76892, -0.53558, -0.23114, 0.26144,
 08:15:37.878,f7:68:33:b1:9e:f1, 2015-01-01 01:01:40.585, -0.64, 0.707, 0.302, -0.122, -2.441, -3.723, 63.539, 39.578, -12.244, 15.007, -74.767, -144.140, 21.37, -0.76892, -0.53558, -0.23114, 0.26144,
 08:15:37.878,f7:68:33:b1:9e:f1, 2015-01-01 01:01:40.585, -0.64, 0.707, 0.302, -0.122, -2.441, -3.723, 63.528, 39.589, -12.272, 15.007, -74.767, -144.140, 21.37, -0.76892, -0.53558, -0.23114, 0.26144,
 08:15:37.878,f7:68:33:b1:9e:f1, 2015-01-01 01:01:40.585, -0.64, 0.707, 0.302, -0.122, -2.441, -3.723, 63.517, 39.6, -12.294, 15.007, -74.767, -144.140, 21.37, -0.76892, -0.53558, -0.23114, 0.26144,
 08:15:37.878,f7:68:33:b1:9e:f1, 2015-01-01 01:01:40.585, -0.644, 0.707, 0.302, -0.122, -2.441, -3.723, 63.506, 39.617, -12.321, 15.007, -74.767, -144.140, 21.37, -0.76892, -0.53558, -0.23114, 0.26144,
 08:15:37.878,f7:68:33:b1:9e:f1, 2015-01-01 01:01:40.585, -0.644, 0.706, 0.303, -0.305, -2.93, -3.845, 63.49, 39.628, -12.354, 15.007, -74.767, -144.140, 21.37, -0.76892, -0.53558, -0.23114, 0.26144,
 08:15:37.878,f7:68:33:b1:9e:f1, 2015-01-01 01:01:40.585, -0.644, 0.706, 0.303, -0.305, -2.93, -3.845, 63.474, 39.639, -12.382, 15.007, -74.767, -144.140, 21.37, -0.76892, -0.53558, -0.23114, 0.26144,
 08:15:37.878,f7:68:33:b1:9e:f1, 2015-01-01 01:01:40.585, -0.644, 0.706, 0.303, -0.305, -2.93, -3.845, 63.457, 39.65, -12.409, 15.007, -74.767, -144.140, 21.37, -0.76892, -0.53558, -0.23114, 0.26144,
 08:15:37.888,d6:24:01:31:b7:6e, 2015-01-01 00:57:25.260, -0.637, -0.334, 0.715, 1.282, -1.221, -2.441, -24.725, 38.463, -104.54, 3.427, 10.460, -29.113, 23.21, 0.61716, 0.13428, 0.35687, -0.6882,
 08:15:37.906,f7:68:33:b1:9e:f1, 2015-01-01 01:01:40.585, -0.648, 0.706, 0.303, -0.305, -2.93, -3.845, 63.446, 39.661, -12.442, 14.800, -74.313, -145.500, 21.37, -0.76892, -0.53558, -0.23114, 0.26144,
 08:15:37.906,f7:68:33:b1:9e:f1, 2015-01-01 01:01:40.585, -0.648, 0.703, 0.302, -0.122, -4.333, -3.296, 63.424, 39.666, -12.475, 14.800, -74.313, -145.500, 21.37, -0.76892, -0.53558, -0.23114, 0.26144,
 08:15:37.906,f7:68:33:b1:9e:f1, 2015-01-01 01:01:40.585, -0.648, 0.703, 0.302, -0.122, -4.333, -3.296, 63.408, 39.672, -12.513, 14.800, -74.313, -145.500, 21.37, -0.76892, -0.53558, -0.23114, 0.26144,
 08:15:37.906,f7:68:33:b1:9e:f1, 2015-01-01 01:01:40.585, -0.648, 0.703, 0.302, -0.122, -4.333, -3.296, 63.391, 39.677, -12.552, 14.800, -74.313, -145.500, 21.37, -0.76892, -0.53558, -0.23114, 0.26144,
 08:15:37.906,f7:68:33:b1:9e:f1, 2015-01-01 01:01:40.585, -0.648, 0.703, 0.302, -0.122, -4.333, -3.296, 63.375, 39.683, -12.585, 14.800, -74.313, -145.500, 21.37, -0.76892, -0.53558, -0.23114, 0.26144,
 08:15:37.906,f7:68:33:b1:9e:f1, 2015-01-01 01:01:40.585, -0.648, 0.699, 0.3, -0.427, -4.761, -3.479, 63.353, 39.688, -12.629, 14.800, -74.313, -145.500, 21.37, -0.76892, -0.53558, -0.23114, 0.26144,
 08:15:37.906,f7:68:33:b1:9e:f1, 2015-01-01 01:01:40.585, -0.324, 0.699, 0.3, -0.427, -4.761, -3.479, 63.331, 39.694, -12.667, 14.800, -74.313, -145.500, 21.37, -0.76892, -0.53558, -0.23114, 0.26144,
 08:15:37.906,f7:68:33:b1:9e:f1, 2015-01-01 01:01:40.585, -0.324, 0.349, 0.15, -0.427, -4.761, -3.479, 63.309, 39.699, -12.706, 14.800, -74.313, -145.500, 21.37, -0.76892, -0.53558, -0.23114, 0.26144,
 08:15:37.964,f7:68:33:b1:9e:f1, 2015-01-01 01:01:40.585, -0.649, 0.349, 0.15, -0.427, -4.761, -3.479, 63.287, 39.705, -12.744, 14.800, -74.313, -145.500, 21.37, -0.76892, -0.53558, -0.23114, 0.26144,
 08:15:37.964,f7:68:33:b1:9e:f1, 2015-01-01 01:01:40.585, -0.649, 0.696, 0.3, -1.404, -4.761, -3.479, 63.259, 39.71, -12.783, 14.800, -74.313, -145.500, 21.37, -0.76892, -0.53558, -0.23114, 0.26144,
 08:15:37.964,f7:68:33:b1:9e:f1, 2015-01-01 01:01:40.585, -0.649, 0.696, 0.3, -1.404, -4.761, -3.479, 63.232, 39.716, -12.821, 14.800, -74.313, -145.500, 21.37, -0.76892, -0.53558, -0.23114, 0.26144,
 08:15:37.964,f7:68:33:b1:9e:f1, 2015-01-01 01:01:40.585, -0.649, 0.696, 0.3, -1.404, -4.761, -3.479, 63.21, 39.721, -12.865, 14.800, -74.313, -145.500, 21.37, -0.76892, -0.53558, -0.23114, 0.26144,
 08:15:37.964,f7:68:33:b1:9e:f1, 2015-01-01 01:01:40.585, -0.651, 0.696, 0.3, -1.404, -4.761, -3.479, 63.182, 39.727, -12.903, 14.800, -74.313, -145.500, 21.37, -0.76892, -0.53558, -0.23114, 0.26144,
 08:15:37.964,f7:68:33:b1:9e:f1, 2015-01-01 01:01:40.585, -0.651, 0.698, 0.306, -1.77, -5.127, -3.174, 63.155, 39.732, -12.942, 14.800, -74.313, -145.500, 21.37, -0.76892, -0.53558, -0.23114, 0.26144,
 08:15:37.964,f7:68:33:b1:9e:f1, 2015-01-01 01:01:40.585, -0.651, 0.698, 0.306, -1.77, -5.127, -3.174, 63.127, 39.738, -12.986, 14.800, -74.313, -145.500, 21.37, -0.76892, -0.53558, -0.23114, 0.26144,
 08:15:37.964,f7:68:33:b1:9e:f1, 2015-01-01 01:01:40.585, -0.651, 0.698, 0.306, -1.77, -5.127, -3.174, 63.094, 39.743, -13.024, 14.800, -74.313, -145.500, 21.37, -0.76892, -0.53558, -0.23114, 0.26144,
 08:15:37.996,f7:68:33:b1:9e:f1, 2015-01-01 01:01:40.585, -0.655, 0.698, 0.306, -1.77, -5.127, -3.174, 63.067, 39.743, -13.068, 14.800, -74.313, -145.500, 21.37, -0.76706, -0.53452, -0.22934, 0.27054,
 08:15:37.996,f7:68:33:b1:9e:f1, 2015-01-01 01:01:40.585, -0.655, 0.696, 0.308, -1.404, -4.395, -3.906, 63.045, 39.754, -13.107, 14.800, -74.313, -145.500, 21.37, -0.76706, -0.53452, -0.22934, 0.27054,
 08:15:37.996,f7:68:33:b1:9e:f1, 2015-01-01 01:01:40.585, -0.655, 0.696, 0.308, -1.404, -4.395, -3.906, 63.018, 39.765, -13.145, 14.800, -74.313, -145.500, 21.37, -0.76706, -0.53452, -0.22934, 0.27054,
 08:15:37.996,f7:68:33:b1:9e:f1, 2015-01-01 01:01:40.585, -0.655, 0.696, 0.308, -1.404, -4.395, -3.906, 62.99, 39.771, -13.184, 14.800, -74.313, -145.500, 21.37, -0.76706, -0.53452, -0.22934, 0.27054,
 08:15:37.996,f7:68:33:b1:9e:f1, 2015-01-01 01:01:40.585, -0.651, 0.696, 0.308, -1.404, -4.395, -3.906, 62.968, 39.781, -13.222, 14.800, -74.313, -145.500, 21.37, -0.76706, -0.53452, -0.22934, 0.27054,
 08:15:37.996,f7:68:33:b1:9e:f1, 2015-01-01 01:01:40.585, -0.651, 0.694, 0.309, -1.709, -4.211, -3.906, 62.941, 39.792, -13.255, 14.800, -74.313, -145.500, 21.37, -0.76706, -0.53452, -0.22934, 0.27054,
 08:15:37.996,f7:68:33:b1:9e:f1, 2015-01-01 01:01:40.585, -0.651, 0.694, 0.309, -1.709, -4.211, -3.906, 62.913, 39.798, -13.293, 14.800, -74.313, -145.500, 21.37, -0.76706, -0.53452, -0.22934, 0.27054,
 08:15:37.996,f7:68:33:b1:9e:f1, 2015-01-01 01:01:40.585, -0.651, 0.694, 0.309, -1.709, -4.211, -3.906, 62.886, 39.809, -13.332, 14.800, -74.313, -145.500, 21.37, -0.76706, -0.53452, -0.22934, 0.27054,
 08:15:38.008,d6:24:01:31:b7:6e, 2015-01-01 00:57:25.680, -0.628, -0.342, 0.716, 3.357, -2.38, -3.357, -24.714, 38.216, -104.518, 3.427, 10.460, -29.113, 23.21, 0.62033, 0.12888, 0.3551, -0.68729,
 08:15:38.026,f7:68:33:b1:9e:f1, 2015-01-01 01:01:40.585, -0.653, 0.694, 0.309, -1.709, -4.211, -3.906, 62.864, 39.82, -13.37, 14.800, -74.313, -145.500, 21.37, -0.76706, -0.53452, -0.22934, 0.27054,
 08:15:38.026,f7:68:33:b1:9e:f1, 2015-01-01 01:01:40.585, -0.653, 0.692, 0.314, -2.075, -4.7, -3.906, 62.831, 39.831, -13.409, 14.800, -74.313, -145.500, 21.37, -0.76706, -0.53452, -0.22934, 0.27054,
 08:15:38.026,f7:68:33:b1:9e:f1, 2015-01-01 01:01:40.585, -0.653, 0.692, 0.314, -2.075, -4.7, -3.906, 62.803, 39.836, -13.453, 14.800, -74.313, -145.500, 21.37, -0.76706, -0.53452, -0.22934, 0.27054,
 08:15:38.026,f7:68:33:b1:9e:f1, 2015-01-01 01:01:40.585, -0.653, 0.692, 0.314, -2.075, -4.7, -3.906, 62.77, 39.847, -13.491, 14.800, -74.313, -145.500, 21.37, -0.76706, -0.53452, -0.22934, 0.27054,
 08:15:38.026,f7:68:33:b1:9e:f1, 2015-01-01 01:01:40.585, -0.652, 0.692, 0.314, -2.075, -4.7, -3.906, 62.743, 39.853, -13.53, 14.800, -74.313, -145.500, 21.37, -0.76706, -0.53452, -0.22934, 0.27054,
 08:15:38.026,f7:68:33:b1:9e:f1, 2015-01-01 01:01:40.585, -0.652, 0.69, 0.317, -2.441, -5.066, -3.662, 62.71, 39.858, -13.574, 14.800, -74.313, -145.500, 21.37, -0.76706, -0.53452, -0.22934, 0.27054,
 08:15:38.026,f7:68:33:b1:9e:f1, 2015-01-01 01:01:40.585, -0.652, 0.69, 0.317, -2.441, -5.066, -3.662, 62.677, 39.869, -13.618, 14.800, -74.313, -145.500, 21.37, -0.76706, -0.53452, -0.22934, 0.27054,
 08:15:38.026,f7:68:33:b1:9e:f1, 2015-01-01 01:01:40.585, -0.652, 0.69, 0.317, -2.441, -5.066, -3.662, 62.644, 39.875, -13.656, 14.800, -74.313, -145.500, 21.37, -0.76706, -0.53452, -0.22934, 0.27054,
 08:15:38.084,f7:68:33:b1:9e:f1, 2015-01-01 01:01:40.940, -0.653, 0.69, 0.317, -2.441, -5.066, -3.662, 62.611, 39.88, -13.7, 14.800, -74.313, -145.500, 21.37, -0.76706, -0.53452, -0.22934, 0.27054,
 08:15:38.084,f7:68:33:b1:9e:f1, 2015-01-01 01:01:40.940, -0.653, 0.691, 0.323, -2.563, -5.371, -3.662, 62.578, 39.886, -13.744, 14.800, -74.313, -145.500, 21.37, -0.76706, -0.53452, -0.22934, 0.27054,
 08:15:38.084,f7:68:33:b1:9e:f1, 2015-01-01 01:01:40.940, -0.653, 0.691, 0.323, -2.563, -5.371, -3.662, 62.54, 39.891, -13.788, 14.800, -74.313, -145.500, 21.37, -0.76706, -0.53452, -0.22934, 0.27054,
 08:15:38.084,f7:68:33:b1:9e:f1, 2015-01-01 01:01:40.940, -0.653, 0.691, 0.323, -2.563, -5.371, -3.662, 62.507, 39.897, -13.832, 14.800, -74.313, -145.500, 21.37, -0.76706, -0.53452, -0.22934, 0.27054,
 08:15:38.084,f7:68:33:b1:9e:f1, 2015-01-01 01:01:40.940, -0.656, 0.691, 0.323, -2.563, -5.371, -3.662, 62.468, 39.908, -13.876, 14.800, -74.313, -145.500, 21.37, -0.76706, -0.53452, -0.22934, 0.27054,
 08:15:38.084,f7:68:33:b1:9e:f1, 2015-01-01 01:01:40.940, -0.656, 0.689, 0.328, -2.686, -5.066, -3.479, 62.435, 39.913, -13.914, 14.800, -74.313, -145.500, 21.37, -0.76706, -0.53452, -0.22934, 0.27054,
 08:15:38.084,f7:68:33:b1:9e:f1, 2015-01-01 01:01:40.940, -0.656, 0.689, 0.328, -2.686, -5.066, -3.479, 62.402, 39.919, -13.958, 14.800, -74.313, -145.500, 21.37, -0.76706, -0.53452, -0.22934, 0.27054,
 08:15:38.084,f7:68:33:b1:9e:f1, 2015-01-01 01:01:40.940, -0.656, 0.689, 0.328, -2.686, -5.066, -3.479, 62.369, 39.924, -13.997, 14.800, -74.313, -145.500, 21.37, -0.76706, -0.53452, -0.22934, 0.27054,
 08:15:38.099,d6:24:01:31:b7:6e, 2015-01-01 00:57:25.680, -0.625, -0.343, 0.726, 3.54, -3.784, -3.113, -24.494, 37.837, -104.42, 3.427, 10.460, -29.113, 23.21, 0.62033, 0.12888, 0.3551, -0.68729,
 08:15:38.116,f7:68:33:b1:9e:f1, 2015-01-01 01:01:40.940, -0.653, 0.689, 0.328, -2.686, -5.066, -3.479, 62.331, 39.93, -14.041, 14.800, -74.313, -145.500, 21.37, -0.76706, -0.53452, -0.22934, 0.27054,
 08:15:38.116,f7:68:33:b1:9e:f1, 2015-01-01 01:01:40.940, -0.653, 0.695, 0.336, -2.747, -4.395, -3.479, 62.298, 39.935, -14.079, 14.800, -74.313, -145.500, 21.37, -0.76706, -0.53452, -0.22934, 0.27054,
 08:15:38.116,f7:68:33:b1:9e:f1, 2015-01-01 01:01:40.940, -0.653, 0.695, 0.336, -2.747, -4.395, -3.479, 62.271, 39.941, -14.112, 14.800, -74.313, -145.500, 21.37, -0.76706, -0.53452, -0.22934, 0.27054,
 08:15:38.116,f7:68:33:b1:9e:f1, 2015-01-01 01:01:40.940, -0.653, 0.695, 0.336, -2.747, -4.395, -3.479, 62.238, 39.952, -14.15, 14.800, -74.313, -145.500, 21.37, -0.76706, -0.53452, -0.22934, 0.27054,
 08:15:38.116,f7:68:33:b1:9e:f1, 2015-01-01 01:01:40.940, -0.656, 0.695, 0.336, -2.747, -4.395, -3.479, 62.205, 39.957, -14.189, 14.800, -74.313, -145.500, 21.37, -0.76706, -0.53452, -0.22934, 0.27054,
 08:15:38.116,f7:68:33:b1:9e:f1, 2015-01-01 01:01:40.940, -0.656, 0.696, 0.342, -1.77, -3.479, -4.7, 62.177, 39.974, -14.222, 14.800, -74.313, -145.500, 21.37, -0.76706, -0.53452, -0.22934, 0.27054,
 08:15:38.116,f7:68:33:b1:9e:f1, 2015-01-01 01:01:40.940, -0.656, 0.696, 0.342, -1.77, -3.479, -4.7, 62.15, 39.985, -14.26, 14.800, -74.313, -145.500, 21.37, -0.76706, -0.53452, -0.22934, 0.27054,
 08:15:38.116,f7:68:33:b1:9e:f1, 2015-01-01 01:01:40.940, -0.656, 0.696, 0.342, -1.77, -3.479, -4.7, 62.122, 40.001, -14.293, 14.800, -74.313, -145.500, 21.37, -0.76706, -0.53452, -0.22934, 0.27054,
 08:15:38.146,f7:68:33:b1:9e:f1, 2015-01-01 01:01:40.940, -0.656, 0.696, 0.342, -1.77, -3.479, -4.7, 62.095, 40.012, -14.332, 14.800, -74.313, -145.500, 21.37, -0.76706, -0.53452, -0.22934, 0.27054,
 08:15:38.146,f7:68:33:b1:9e:f1, 2015-01-01 01:01:40.940, -0.656, 0.693, 0.343, -1.221, -3.601, -4.517, 62.067, 40.029, -14.365, 14.800, -74.313, -145.500, 21.37, -0.76706, -0.53452, -0.22934, 0.27054,
 08:15:38.146,f7:68:33:b1:9e:f1, 2015-01-01 01:01:40.940, -0.656, 0.693, 0.343, -1.221, -3.601, -4.517, 62.045, 40.04, -14.403, 14.800, -74.313, -145.500, 21.37, -0.76706, -0.53452, -0.22934, 0.27054,
 08:15:38.146,f7:68:33:b1:9e:f1, 2015-01-01 01:01:40.940, -0.656, 0.693, 0.343, -1.221, -3.601, -4.517, 62.018, 40.051, -14.436, 14.800, -74.313, -145.500, 21.37, -0.76706, -0.53452, -0.22934, 0.27054,
 08:15:38.146,f7:68:33:b1:9e:f1, 2015-01-01 01:01:40.940, -0.652, 0.693, 0.343, -1.221, -3.601, -4.517, 61.996, 40.067, -14.474, 14.800, -74.313, -145.500, 21.37, -0.76706, -0.53452, -0.22934, 0.27054,
 08:15:38.146,f7:68:33:b1:9e:f1, 2015-01-01 01:01:40.940, -0.652, 0.688, 0.34, -0.488, -2.563, -5.066, 61.974, 40.084, -14.507, 14.800, -74.313, -145.500, 21.37, -0.76706, -0.53452, -0.22934, 0.27054,
 08:15:38.146,f7:68:33:b1:9e:f1, 2015-01-01 01:01:40.940, -0.652, 0.688, 0.34, -0.488, -2.563, -5.066, 61.957, 40.1, -14.535, 14.800, -74.313, -145.500, 21.37, -0.76706, -0.53452, -0.22934, 0.27054,
 08:15:38.146,f7:68:33:b1:9e:f1, 2015-01-01 01:01:40.940, -0.652, 0.688, 0.34, -0.488, -2.563, -5.066, 61.935, 40.117, -14.568, 14.800, -74.313, -145.500, 21.37, -0.76706, -0.53452, -0.22934, 0.27054,
 08:15:38.205,f7:68:33:b1:9e:f1, 2015-01-01 01:01:40.940, -0.659, 0.688, 0.34, -0.488, -2.563, -5.066, 61.919, 40.133, -14.601, 14.800, -74.313, -145.500, 21.37, -0.76706, -0.53452, -0.22934, 0.27054,
 08:15:38.205,f7:68:33:b1:9e:f1, 2015-01-01 01:01:40.940, -0.659, 0.686, 0.34, -1.221, -3.54, -4.639, 61.891, 40.15, -14.634, 14.800, -74.313, -145.500, 21.37, -0.76706, -0.53452, -0.22934, 0.27054,
 08:15:38.205,f7:68:33:b1:9e:f1, 2015-01-01 01:01:40.940, -0.659, 0.686, 0.34, -1.221, -3.54, -4.639, 61.864, 40.161, -14.672, 14.800, -74.313, -145.500, 21.37, -0.76706, -0.53452, -0.22934, 0.27054,
 08:15:38.205,f7:68:33:b1:9e:f1, 2015-01-01 01:01:40.940, -0.659, 0.686, 0.34, -1.221, -3.54, -4.639, 61.842, 40.177, -14.705, 14.800, -74.313, -145.500, 21.37, -0.76706, -0.53452, -0.22934, 0.27054,
 08:15:38.205,f7:68:33:b1:9e:f1, 2015-01-01 01:01:40.940, -0.658, 0.686, 0.34, -1.221, -3.54, -4.639, 61.815, 40.188, -14.744, 14.800, -74.313, -145.500, 21.37, -0.76706, -0.53452, -0.22934, 0.27054,
 08:15:38.205,f7:68:33:b1:9e:f1, 2015-01-01 01:01:40.940, -0.658, 0.687, 0.341, -0.366, -2.747, -6.714, 61.793, 40.21, -14.782, 14.800, -74.313, -145.500, 21.37, -0.76706, -0.53452, -0.22934, 0.27054,
 08:15:38.205,f7:68:33:b1:9e:f1, 2015-01-01 01:01:40.940, -0.658, 0.687, 0.341, -0.366, -2.747, -6.714, 61.771, 40.237, -14.815, 14.800, -74.313, -145.500, 21.37, -0.76706, -0.53452, -0.22934, 0.27054,
 08:15:38.205,f7:68:33:b1:9e:f1, 2015-01-01 01:01:40.940, -0.658, 0.687, 0.341, -0.366, -2.747, -6.714, 61.749, 40.259, -14.854, 14.800, -74.313, -145.500, 21.37, -0.76706, -0.53452, -0.22934, 0.27054,
 08:15:38.218,d6:24:01:31:b7:6e, 2015-01-01 00:57:25.680, -0.612, -0.334, 0.747, 3.54, -4.211, -2.686, -24.164, 37.392, -104.222, 3.427, 10.460, -29.113, 23.21, 0.62033, 0.12888, 0.3551, -0.68729,
 08:15:38.235,f7:68:33:b1:9e:f1, 2015-01-01 01:01:40.940, -0.66, 0.687, 0.341, -0.366, -2.747, -6.714, 61.721, 40.287, -14.892, 14.800, -74.313, -145.500, 21.37, -0.76706, -0.53452, -0.22934, 0.27054,
 08:15:38.235,f7:68:33:b1:9e:f1, 2015-01-01 01:01:40.940, -0.66, 0.68, 0.337, 0.122, -2.075, -7.507, 61.705, 40.314, -14.925, 14.800, -74.313, -145.500, 21.37, -0.76706, -0.53452, -0.22934, 0.27054,
 08:15:38.235,f7:68:33:b1:9e:f1, 2015-01-01 01:01:40.940, -0.66, 0.68, 0.337, 0.122, -2.075, -7.507, 61.683, 40.342, -14.963, 14.800, -74.313, -145.500, 21.37, -0.76706, -0.53452, -0.22934, 0.27054,
 08:15:38.235,f7:68:33:b1:9e:f1, 2015-01-01 01:01:40.940, -0.66, 0.68, 0.337, 0.122, -2.075, -7.507, 61.666, 40.369, -14.996, 14.800, -74.313, -145.500, 21.37, -0.76706, -0.53452, -0.22934, 0.27054,
 08:15:38.235,f7:68:33:b1:9e:f1, 2015-01-01 01:01:40.940, -0.666, 0.68, 0.337, 0.122, -2.075, -7.507, 61.644, 40.402, -15.035, 14.800, -74.313, -145.500, 21.37, -0.76706, -0.53452, -0.22934, 0.27054,
 08:15:38.235,f7:68:33:b1:9e:f1, 2015-01-01 01:01:40.940, -0.666, 0.676, 0.335, 0.183, -1.77, -6.897, 61.628, 40.43, -15.068, 14.800, -74.313, -145.500, 21.37, -0.76706, -0.53452, -0.22934, 0.27054,
 08:15:38.235,f7:68:33:b1:9e:f1, 2015-01-01 01:01:40.940, -0.666, 0.676, 0.335, 0.183, -1.77, -6.897, 61.611, 40.457, -15.101, 14.800, -74.313, -145.500, 21.37, -0.76706, -0.53452, -0.22934, 0.27054,
 08:15:38.235,f7:68:33:b1:9e:f1, 2015-01-01 01:01:40.940, -0.666, 0.676, 0.335, 0.183, -1.77, -6.897, 61.595, 40.479, -15.128, 14.800, -74.313, -145.500, 21.37, -0.76706, -0.53452, -0.22934, 0.27054,
 08:15:38.265,f7:68:33:b1:9e:f1, 2015-01-01 01:01:40.940, -0.672, 0.676, 0.335, 0.183, -1.77, -6.897, 61.578, 40.507, -15.161, 14.367, -72.847, -144.767, 21.37, -0.76706, -0.53452, -0.22934, 0.27054,
 08:15:38.265,f7:68:33:b1:9e:f1, 2015-01-01 01:01:40.940, -0.672, 0.676, 0.325, 0.366, -2.869, -7.263, 61.556, 40.534, -15.205, 14.367, -72.847, -144.767, 21.37, -0.76706, -0.53452, -0.22934, 0.27054,
 08:15:38.265,f7:68:33:b1:9e:f1, 2015-01-01 01:01:40.940, -0.672, 0.676, 0.325, 0.366, -2.869, -7.263, 61.534, 40.562, -15.244, 14.367, -72.847, -144.767, 21.37, -0.76706, -0.53452, -0.22934, 0.27054,
 08:15:38.265,f7:68:33:b1:9e:f1, 2015-01-01 01:01:40.940, -0.672, 0.676, 0.325, 0.366, -2.869, -7.263, 61.512, 40.589, -15.282, 14.367, -72.847, -144.767, 21.37, -0.76706, -0.53452, -0.22934, 0.27054,
 08:15:38.265,f7:68:33:b1:9e:f1, 2015-01-01 01:01:40.940, -0.676, 0.676, 0.325, 0.366, -2.869, -7.263, 61.49, 40.616, -15.32, 14.367, -72.847, -144.767, 21.37, -0.76706, -0.53452, -0.22934, 0.27054,
 08:15:38.265,f7:68:33:b1:9e:f1, 2015-01-01 01:01:40.940, -0.676, 0.666, 0.33, -1.16, -2.808, -4.7, 61.469, 40.627, -15.353, 14.367, -72.847, -144.767, 21.37, -0.76706, -0.53452, -0.22934, 0.27054,
 08:15:38.265,f7:68:33:b1:9e:f1, 2015-01-01 01:01:40.940, -0.676, 0.666, 0.33, -1.16, -2.808, -4.7, 61.447, 40.644, -15.386, 14.367, -72.847, -144.767, 21.37, -0.76706, -0.53452, -0.22934, 0.27054,
 08:15:38.265,f7:68:33:b1:9e:f1, 2015-01-01 01:01:40.940, -0.676, 0.666, 0.33, -1.16, -2.808, -4.7, 61.425, 40.66, -15.419, 14.367, -72.847, -144.767, 21.37, -0.76706, -0.53452, -0.22934, 0.27054,
 08:15:38.308,d6:24:01:31:b7:6e, 2015-01-01 00:57:25.680, -0.605, -0.334, 0.748, 4.333, -2.38, -2.869, -23.972, 37.007, -104.156, 1.967, 10.020, -28.660, 23.21, 0.62033, 0.12888, 0.3551, -0.68729,
 08:15:38.325,f7:68:33:b1:9e:f1, 2015-01-01 01:01:40.940, -0.672, 0.666, 0.33, -1.16, -2.808, -4.7, 61.397, 40.677, -15.452, 14.367, -72.847, -144.767, 21.37, -0.76706, -0.53452, -0.22934, 0.27054,
 08:15:38.325,f7:68:33:b1:9e:f1, 2015-01-01 01:01:40.940, -0.672, 0.674, 0.341, -1.404, -2.625, -5.005, 61.375, 40.693, -15.48, 14.367, -72.847, -144.767, 21.37, -0.76706, -0.53452, -0.22934, 0.27054,
 08:15:38.325,f7:68:33:b1:9e:f1, 2015-01-01 01:01:40.940, -0.672, 0.674, 0.341, -1.404, -2.625, -5.005, 61.348, 40.71, -15.513, 14.367, -72.847, -144.767, 21.37, -0.76706, -0.53452, -0.22934, 0.27054,
 08:15:38.325,f7:68:33:b1:9e:f1, 2015-01-01 01:01:40.940, -0.67, 0.674, 0.341, -1.404, -2.625, -5.005, 61.326, 40.726, -15.546, 14.367, -72.847, -144.767, 21.37, -0.76706, -0.53452, -0.22934, 0.27054,
 08:15:38.325,f7:68:33:b1:9e:f1, 2015-01-01 01:01:40.940, -0.67, 0.67, 0.34, -0.244, -2.502, -5.127, 61.309, 40.748, -15.579, 14.367, -72.847, -144.767, 21.37, -0.76706, -0.53452, -0.22934, 0.27054,
 08:15:38.325,f7:68:33:b1:9e:f1, 2015-01-01 01:01:40.940, -0.67, 0.67, 0.34, -0.244, -2.502, -5.127, 61.287, 40.765, -15.606, 14.367, -72.847, -144.767, 21.37, -0.76706, -0.53452, -0.22934, 0.27054,
 08:15:38.325,f7:68:33:b1:9e:f1, 2015-01-01 01:01:40.940, -0.67, 0.67, 0.34, -0.244, -2.502, -5.127, 61.271, 40.787, -15.639, 14.367, -72.847, -144.767, 21.37, -0.76706, -0.53452, -0.22934, 0.27054,
 08:15:38.325,f7:68:33:b1:9e:f1, 2015-01-01 01:01:40.940, -0.676, 0.67, 0.34, -0.244, -2.502, -5.127, 61.249, 40.803, -15.672, 14.367, -72.847, -144.767, 21.37, -0.76706, -0.53452, -0.22934, 0.27054,
 08:15:38.356,f7:68:33:b1:9e:f1, 2015-01-01 01:01:40.940, -0.676, 0.665, 0.335, -0.183, -3.357, -3.784, 61.232, 40.814, -15.705, 14.367, -72.847, -144.767, 21.37, -0.76617, -0.52658, -0.22842, 0.28876,
 08:15:38.356,f7:68:33:b1:9e:f1, 2015-01-01 01:01:40.940, -0.676, 0.665, 0.335, -0.183, -3.357, -3.784, 61.21, 40.825, -15.738, 14.367, -72.847, -144.767, 21.37, -0.76617, -0.52658, -0.22842, 0.28876,
 08:15:38.356,f7:68:33:b1:9e:f1, 2015-01-01 01:01:40.940, -0.676, 0.665, 0.335, -0.183, -3.357, -3.784, 61.194, 40.836, -15.771, 14.367, -72.847, -144.767, 21.37, -0.76617, -0.52658, -0.22842, 0.28876,
 08:15:38.356,f7:68:33:b1:9e:f1, 2015-01-01 01:01:40.940, -0.678, 0.665, 0.335, -0.183, -3.357, -3.784, 61.172, 40.847, -15.804, 14.367, -72.847, -144.767, 21.37, -0.76617, -0.52658, -0.22842, 0.28876,
 08:15:38.356,f7:68:33:b1:9e:f1, 2015-01-01 01:01:40.940, -0.678, 0.659, 0.333, -1.282, -4.578, -1.77, 61.144, 40.842, -15.837, 14.367, -72.847, -144.767, 21.37, -0.76617, -0.52658, -0.22842, 0.28876,
 08:15:38.356,f7:68:33:b1:9e:f1, 2015-01-01 01:01:40.940, -0.678, 0.659, 0.333, -1.282, -4.578, -1.77, 61.122, 40.842, -15.87, 14.367, -72.847, -144.767, 21.37, -0.76617, -0.52658, -0.22842, 0.28876,
 08:15:38.356,f7:68:33:b1:9e:f1, 2015-01-01 01:01:40.940, -0.678, 0.659, 0.333, -1.282, -4.578, -1.77, 61.095, 40.842, -15.903, 14.367, -72.847, -144.767, 21.37, -0.76617, -0.52658, -0.22842, 0.28876,
 08:15:38.356,f7:68:33:b1:9e:f1, 2015-01-01 01:01:40.940, -0.673, 0.659, 0.333, -1.282, -4.578, -1.77, 61.068, 40.842, -15.936, 14.367, -72.847, -144.767, 21.37, -0.76617, -0.52658, -0.22842, 0.28876,
 08:15:38.389,f7:68:33:b1:9e:f1, 2015-01-01 01:01:40.940, -0.673, 0.668, 0.343, -2.93, -4.028, 0.061, 61.04, 40.836, -15.963, 14.367, -72.847, -144.767, 21.37, -0.76617, -0.52658, -0.22842, 0.28876,
 08:15:38.389,f7:68:33:b1:9e:f1, 2015-01-01 01:01:40.940, -0.673, 0.668, 0.343, -2.93, -4.028, 0.061, 61.013, 40.825, -15.985, 14.367, -72.847, -144.767, 21.37, -0.76617, -0.52658, -0.22842, 0.28876,
 08:15:38.389,f7:68:33:b1:9e:f1, 2015-01-01 01:01:40.940, -0.673, 0.668, 0.343, -2.93, -4.028, 0.061, 60.985, 40.82, -16.013, 14.367, -72.847, -144.767, 21.37, -0.76617, -0.52658, -0.22842, 0.28876,
 08:15:38.389,f7:68:33:b1:9e:f1, 2015-01-01 01:01:40.940, -0.67, 0.668, 0.343, -2.93, -4.028, 0.061, 60.958, 40.814, -16.035, 14.367, -72.847, -144.767, 21.37, -0.76617, -0.52658, -0.22842, 0.28876,
 08:15:38.389,f7:68:33:b1:9e:f1, 2015-01-01 01:01:40.940, -0.67, 0.671, 0.349, -1.953, -2.197, -0.366, 60.941, 40.814, -16.051, 14.367, -72.847, -144.767, 21.37, -0.76617, -0.52658, -0.22842, 0.28876,
 08:15:38.389,f7:68:33:b1:9e:f1, 2015-01-01 01:01:40.940, -0.67, 0.671, 0.349, -1.953, -2.197, -0.366, 60.925, 40.809, -16.068, 14.367, -72.847, -144.767, 21.37, -0.76617, -0.52658, -0.22842, 0.28876,
 08:15:38.389,f7:68:33:b1:9e:f1, 2015-01-01 01:01:40.940, -0.67, 0.671, 0.349, -1.953, -2.197, -0.366, 60.908, 40.809, -16.084, 14.367, -72.847, -144.767, 21.37, -0.76617, -0.52658, -0.22842, 0.28876,
 08:15:38.389,f7:68:33:b1:9e:f1, 2015-01-01 01:01:40.940, -0.666, 0.671, 0.349, -1.953, -2.197, -0.366, 60.886, 40.809, -16.1, 14.367, -72.847, -144.767, 21.37, -0.76617, -0.52658, -0.22842, 0.28876,
 08:15:38.429,d6:24:01:31:b7:6e, 2015-01-01 00:57:26.065, -0.607, -0.339, 0.752, 1.892, -2.38, -1.343, -23.851, 36.683, -104.041, 1.967, 10.020, -28.660, 23.21, 0.6228, 0.12192, 0.34399, -0.69196,
 08:15:38.445,f7:68:33:b1:9e:f1, 2015-01-01 01:01:41.300, -0.666, 0.675, 0.35, -1.465, -2.808, 0.366, 60.875, 40.803, -16.117, 14.367, -72.847, -144.767, 21.37, -0.76617, -0.52658, -0.22842, 0.28876,
 08:15:38.445,f7:68:33:b1:9e:f1, 2015-01-01 01:01:41.300, -0.666, 0.675, 0.35, -1.465, -2.808, 0.366, 60.859, 40.798, -16.133, 14.367, -72.847, -144.767, 21.37, -0.76617, -0.52658, -0.22842, 0.28876,
 08:15:38.445,f7:68:33:b1:9e:f1, 2015-01-01 01:01:41.300, -0.666, 0.675, 0.35, -1.465, -2.808, 0.366, 60.842, 40.792, -16.15, 14.367, -72.847, -144.767, 21.37, -0.76617, -0.52658, -0.22842, 0.28876,
 08:15:38.445,f7:68:33:b1:9e:f1, 2015-01-01 01:01:41.300, -0.666, 0.675, 0.35, -1.465, -2.808, 0.366, 60.826, 40.787, -16.166, 14.367, -72.847, -144.767, 21.37, -0.76617, -0.52658, -0.22842, 0.28876,
 08:15:38.445,f7:68:33:b1:9e:f1, 2015-01-01 01:01:41.300, -0.666, 0.675, 0.349, -1.16, -1.465, -1.221, 60.815, 40.787, -16.177, 14.367, -72.847, -144.767, 21.37, -0.76617, -0.52658, -0.22842, 0.28876,
 08:15:38.445,f7:68:33:b1:9e:f1, 2015-01-01 01:01:41.300, -0.666, 0.675, 0.349, -1.16, -1.465, -1.221, 60.798, 40.792, -16.194, 14.367, -72.847, -144.767, 21.37, -0.76617, -0.52658, -0.22842, 0.28876,
 08:15:38.445,f7:68:33:b1:9e:f1, 2015-01-01 01:01:41.300, -0.666, 0.675, 0.349, -1.16, -1.465, -1.221, 60.787, 40.798, -16.205, 14.367, -72.847, -144.767, 21.37, -0.76617, -0.52658, -0.22842, 0.28876,
 08:15:38.445,f7:68:33:b1:9e:f1, 2015-01-01 01:01:41.300, -0.669, 0.675, 0.349, -1.16, -1.465, -1.221, 60.776, 40.798, -16.221, 14.367, -72.847, -144.767, 21.37, -0.76617, -0.52658, -0.22842, 0.28876,
 08:15:38.476,f7:68:33:b1:9e:f1, 2015-01-01 01:01:41.300, -0.669, 0.671, 0.348, -0.916, -1.16, -0.732, 60.765, 40.803, -16.232, 14.367, -72.847, -144.767, 21.37, -0.76617, -0.52658, -0.22842, 0.28876,
 08:15:38.476,f7:68:33:b1:9e:f1, 2015-01-01 01:01:41.300, -0.669, 0.671, 0.348, -0.916, -1.16, -0.732, 60.754, 40.803, -16.238, 14.367, -72.847, -144.767, 21.37, -0.76617, -0.52658, -0.22842, 0.28876,
 08:15:38.476,f7:68:33:b1:9e:f1, 2015-01-01 01:01:41.300, -0.669, 0.671, 0.348, -0.916, -1.16, -0.732, 60.749, 40.809, -16.249, 14.367, -72.847, -144.767, 21.37, -0.76617, -0.52658, -0.22842, 0.28876,
 08:15:38.476,f7:68:33:b1:9e:f1, 2015-01-01 01:01:41.300, -0.667, 0.671, 0.348, -0.916, -1.16, -0.732, 60.738, 40.809, -16.26, 14.367, -72.847, -144.767, 21.37, -0.76617, -0.52658, -0.22842, 0.28876,
 08:15:38.476,f7:68:33:b1:9e:f1, 2015-01-01 01:01:41.300, -0.667, 0.672, 0.349, -0.61, -1.587, 0.305, 60.732, 40.803, -16.271, 14.367, -72.847, -144.767, 21.37, -0.76617, -0.52658, -0.22842, 0.28876,
 08:15:38.476,f7:68:33:b1:9e:f1, 2015-01-01 01:01:41.300, -0.667, 0.672, 0.349, -0.61, -1.587, 0.305, 60.721, 40.803, -16.282, 14.367, -72.847, -144.767, 21.37, -0.76617, -0.52658, -0.22842, 0.28876,
 08:15:38.476,f7:68:33:b1:9e:f1, 2015-01-01 01:01:41.300, -0.667, 0.672, 0.349, -0.61, -1.587, 0.305, 60.716, 40.798, -16.293, 14.367, -72.847, -144.767, 21.37, -0.76617, -0.52658, -0.22842, 0.28876,
 08:15:38.476,f7:68:33:b1:9e:f1, 2015-01-01 01:01:41.300, -0.666, 0.672, 0.349, -0.61, -1.587, 0.305, 60.71, 40.798, -16.298, 14.367, -72.847, -144.767, 21.37, -0.76617, -0.52658, -0.22842, 0.28876,
 08:15:38.490,d6:24:01:31:b7:6e, 2015-01-01 00:57:26.065, -0.606, -0.332, 0.757, 0.488, -1.709, 0.305, -23.741, 36.497, -103.716, 1.967, 10.020, -28.660, 23.21, 0.6228, 0.12192, 0.34399, -0.69196,
 08:15:38.506,f7:68:33:b1:9e:f1, 2015-01-01 01:01:41.300, -0.666, 0.673, 0.346, -0.305, -1.282, 0, 60.705, 40.792, -16.309, 14.367, -72.847, -144.767, 21.37, -0.76617, -0.52658, -0.22842, 0.28876,
 08:15:38.506,f7:68:33:b1:9e:f1, 2015-01-01 01:01:41.300, -0.666, 0.673, 0.346, -0.305, -1.282, 0, 60.699, 40.792, -16.315, 14.367, -72.847, -144.767, 21.37, -0.76617, -0.52658, -0.22842, 0.28876,
 08:15:38.506,f7:68:33:b1:9e:f1, 2015-01-01 01:01:41.300, -0.666, 0.673, 0.346, -0.305, -1.282, 0, 60.694, 40.792, -16.326, 14.367, -72.847, -144.767, 21.37, -0.76617, -0.52658, -0.22842, 0.28876,
 08:15:38.506,f7:68:33:b1:9e:f1, 2015-01-01 01:01:41.300, -0.668, 0.673, 0.346, -0.305, -1.282, 0, 60.688, 40.792, -16.337, 14.367, -72.847, -144.767, 21.37, -0.76617, -0.52658, -0.22842, 0.28876,
 08:15:38.506,f7:68:33:b1:9e:f1, 2015-01-01 01:01:41.300, -0.668, 0.669, 0.343, -0.244, -0.427, -0.916, 60.683, 40.792, -16.342, 14.367, -72.847, -144.767, 21.37, -0.76617, -0.52658, -0.22842, 0.28876,
 08:15:38.506,f7:68:33:b1:9e:f1, 2015-01-01 01:01:41.300, -0.668, 0.669, 0.343, -0.244, -0.427, -0.916, 60.677, 40.798, -16.348, 14.367, -72.847, -144.767, 21.37, -0.76617, -0.52658, -0.22842, 0.28876,
 08:15:38.506,f7:68:33:b1:9e:f1, 2015-01-01 01:01:41.300, -0.668, 0.669, 0.343, -0.244, -0.427, -0.916, 60.677, 40.803, -16.353, 14.367, -72.847, -144.767, 21.37, -0.76617, -0.52658, -0.22842, 0.28876,
 08:15:38.506,f7:68:33:b1:9e:f1, 2015-01-01 01:01:41.300, -0.669, 0.669, 0.343, -0.244, -0.427, -0.916, 60.672, 40.809, -16.359, 14.367, -72.847, -144.767, 21.37, -0.76617, -0.52658, -0.22842, 0.28876,
 08:15:38.565,f7:68:33:b1:9e:f1, 2015-01-01 01:01:41.300, -0.669, 0.667, 0.344, -0.61, -1.465, 0.793, 60.667, 40.803, -16.37, 14.367, -72.847, -144.767, 21.37, -0.76617, -0.52658, -0.22842, 0.28876,
 08:15:38.565,f7:68:33:b1:9e:f1, 2015-01-01 01:01:41.300, -0.669, 0.667, 0.344, -0.61, -1.465, 0.793, 60.661, 40.798, -16.375, 14.367, -72.847, -144.767, 21.37, -0.76617, -0.52658, -0.22842, 0.28876,
 08:15:38.565,f7:68:33:b1:9e:f1, 2015-01-01 01:01:41.300, -0.669, 0.667, 0.344, -0.61, -1.465, 0.793, 60.656, 40.792, -16.386, 14.367, -72.847, -144.767, 21.37, -0.76617, -0.52658, -0.22842, 0.28876,
 08:15:38.565,f7:68:33:b1:9e:f1, 2015-01-01 01:01:41.300, -0.666, 0.667, 0.344, -0.61, -1.465, 0.793, 60.65, 40.787, -16.392, 14.367, -72.847, -144.767, 21.37, -0.76617, -0.52658, -0.22842, 0.28876,
 08:15:38.565,f7:68:33:b1:9e:f1, 2015-01-01 01:01:41.300, -0.666, 0.671, 0.345, -0.244, -0.366, -0.061, 60.645, 40.787, -16.397, 14.367, -72.847, -144.767, 21.37, -0.76617, -0.52658, -0.22842, 0.28876,
 08:15:38.565,f7:68:33:b1:9e:f1, 2015-01-01 01:01:41.300, -0.666, 0.671, 0.345, -0.244, -0.366, -0.061, 60.645, 40.792, -16.397, 14.367, -72.847, -144.767, 21.37, -0.76617, -0.52658, -0.22842, 0.28876,
 08:15:38.565,f7:68:33:b1:9e:f1, 2015-01-01 01:01:41.300, -0.666, 0.671, 0.345, -0.244, -0.366, -0.061, 60.645, 40.792, -16.403, 14.367, -72.847, -144.767, 21.37, -0.76617, -0.52658, -0.22842, 0.28876,
 08:15:38.565,f7:68:33:b1:9e:f1, 2015-01-01 01:01:41.300, -0.67, 0.671, 0.345, -0.244, -0.366, -0.061, 60.645, 40.792, -16.403, 14.367, -72.847, -144.767, 21.37, -0.76617, -0.52658, -0.22842, 0.28876,
 08:15:38.595,f7:68:33:b1:9e:f1, 2015-01-01 01:01:41.300, -0.67, 0.667, 0.342, -0.488, -0.427, 0.427, 60.639, 40.792, -16.408, 14.367, -72.847, -144.767, 21.37, -0.76617, -0.52658, -0.22842, 0.28876,
 08:15:38.595,f7:68:33:b1:9e:f1, 2015-01-01 01:01:41.300, -0.67, 0.667, 0.342, -0.488, -0.427, 0.427, 60.639, 40.792, -16.408, 14.367, -72.847, -144.767, 21.37, -0.76617, -0.52658, -0.22842, 0.28876,
 08:15:38.595,f7:68:33:b1:9e:f1, 2015-01-01 01:01:41.300, -0.67, 0.667, 0.342, -0.488, -0.427, 0.427, 60.634, 40.787, -16.414, 14.367, -72.847, -144.767, 21.37, -0.76617, -0.52658, -0.22842, 0.28876,
 08:15:38.595,f7:68:33:b1:9e:f1, 2015-01-01 01:01:41.300, -0.665, 0.667, 0.342, -0.488, -0.427, 0.427, 60.634, 40.787, -16.414, 14.367, -72.847, -144.767, 21.37, -0.76617, -0.52658, -0.22842, 0.28876,
 08:15:38.595,f7:68:33:b1:9e:f1, 2015-01-01 01:01:41.300, -0.665, 0.671, 0.344, -0.793, -0.122, 0.061, 60.628, 40.787, -16.419, 14.367, -72.847, -144.767, 21.37, -0.76617, -0.52658, -0.22842, 0.28876,
 08:15:38.595,f7:68:33:b1:9e:f1, 2015-01-01 01:01:41.300, -0.665, 0.671, 0.344, -0.793, -0.122, 0.061, 60.628, 40.792, -16.419, 14.367, -72.847, -144.767, 21.37, -0.76617, -0.52658, -0.22842, 0.28876,
 08:15:38.595,f7:68:33:b1:9e:f1, 2015-01-01 01:01:41.300, -0.665, 0.671, 0.344, -0.793, -0.122, 0.061, 60.623, 40.792, -16.419, 14.367, -72.847, -144.767, 21.37, -0.76617, -0.52658, -0.22842, 0.28876,
 08:15:38.595,f7:68:33:b1:9e:f1, 2015-01-01 01:01:41.300, -0.666, 0.671, 0.344, -0.793, -0.122, 0.061, 60.623, 40.792, -16.419, 14.367, -72.847, -144.767, 21.37, -0.76617, -0.52658, -0.22842, 0.28876,
 08:15:38.609,d6:24:01:31:b7:6e, 2015-01-01 00:57:26.065, -0.605, -0.335, 0.756, 0.549, -0.244, -0.183, -23.692, 36.414, -103.359, 1.967, 10.020, -28.660, 23.21, 0.6228, 0.12192, 0.34399, -0.69196,
 08:15:38.656,f7:68:33:b1:9e:f1, 2015-01-01 01:01:41.300, -0.666, 0.671, 0.346, -0.916, -0.61, 0.671, 60.617, 40.792, -16.425, 14.380, -71.900, -144.960, 21.37, -0.76617, -0.52658, -0.22842, 0.28876,
 08:15:38.656,f7:68:33:b1:9e:f1, 2015-01-01 01:01:41.300, -0.666, 0.671, 0.346, -0.916, -0.61, 0.671, 60.612, 40.787, -16.425, 14.380, -71.900, -144.960, 21.37, -0.76617, -0.52658, -0.22842, 0.28876,
 08:15:38.656,f7:68:33:b1:9e:f1, 2015-01-01 01:01:41.300, -0.666, 0.671, 0.346, -0.916, -0.61, 0.671, 60.606, 40.787, -16.43, 14.380, -71.900, -144.960, 21.37, -0.76617, -0.52658, -0.22842, 0.28876,
 08:15:38.656,f7:68:33:b1:9e:f1, 2015-01-01 01:01:41.300, -0.665, 0.671, 0.346, -0.916, -0.61, 0.671, 60.606, 40.781, -16.43, 14.380, -71.900, -144.960, 21.37, -0.76617, -0.52658, -0.22842, 0.28876,
 08:15:38.656,f7:68:33:b1:9e:f1, 2015-01-01 01:01:41.300, -0.665, 0.673, 0.348, -0.244, -0.854, 0.183, 60.601, 40.781, -16.436, 14.380, -71.900, -144.960, 21.37, -0.76617, -0.52658, -0.22842, 0.28876,
 08:15:38.656,f7:68:33:b1:9e:f1, 2015-01-01 01:01:41.300, -0.665, 0.673, 0.348, -0.244, -0.854, 0.183, 60.595, 40.781, -16.447, 14.380, -71.900, -144.960, 21.37, -0.76617, -0.52658, -0.22842, 0.28876,
 08:15:38.656,f7:68:33:b1:9e:f1, 2015-01-01 01:01:41.300, -0.665, 0.673, 0.348, -0.244, -0.854, 0.183, 60.595, 40.776, -16.452, 14.380, -71.900, -144.960, 21.37, -0.76617, -0.52658, -0.22842, 0.28876,
 08:15:38.656,f7:68:33:b1:9e:f1, 2015-01-01 01:01:41.300, -0.666, 0.673, 0.348, -0.244, -0.854, 0.183, 60.59, 40.776, -16.458, 14.380, -71.900, -144.960, 21.37, -0.76617, -0.52658, -0.22842, 0.28876,
 08:15:38.685,f7:68:33:b1:9e:f1, 2015-01-01 01:01:41.300, -0.666, 0.666, 0.338, -0.244, 0.61, -0.916, 60.59, 40.787, -16.458, 14.380, -71.900, -144.960, 21.37, -0.767, -0.52322, -0.22659, 0.29407,
 08:15:38.685,f7:68:33:b1:9e:f1, 2015-01-01 01:01:41.300, -0.666, 0.666, 0.338, -0.244, 0.61, -0.916, 60.595, 40.792, -16.458, 14.380, -71.900, -144.960, 21.37, -0.767, -0.52322, -0.22659, 0.29407,
 08:15:38.685,f7:68:33:b1:9e:f1, 2015-01-01 01:01:41.300, -0.666, 0.666, 0.338, -0.244, 0.61, -0.916, 60.595, 40.798, -16.458, 14.380, -71.900, -144.960, 21.37, -0.767, -0.52322, -0.22659, 0.29407,
 08:15:38.685,f7:68:33:b1:9e:f1, 2015-01-01 01:01:41.300, -0.661, 0.666, 0.338, -0.244, 0.61, -0.916, 60.595, 40.803, -16.458, 14.380, -71.900, -144.960, 21.37, -0.767, -0.52322, -0.22659, 0.29407,
 08:15:38.685,f7:68:33:b1:9e:f1, 2015-01-01 01:01:41.300, -0.661, 0.667, 0.336, -1.953, 0.793, -0.732, 60.584, 40.814, -16.458, 14.380, -71.900, -144.960, 21.37, -0.767, -0.52322, -0.22659, 0.29407,
 08:15:38.685,f7:68:33:b1:9e:f1, 2015-01-01 01:01:41.300, -0.661, 0.667, 0.336, -1.953, 0.793, -0.732, 60.579, 40.82, -16.452, 14.380, -71.900, -144.960, 21.37, -0.767, -0.52322, -0.22659, 0.29407,
 08:15:38.685,f7:68:33:b1:9e:f1, 2015-01-01 01:01:41.300, -0.661, 0.667, 0.336, -1.953, 0.793, -0.732, 60.573, 40.825, -16.452, 14.380, -71.900, -144.960, 21.37, -0.767, -0.52322, -0.22659, 0.29407,
 08:15:38.685,f7:68:33:b1:9e:f1, 2015-01-01 01:01:41.300, -0.658, 0.667, 0.336, -1.953, 0.793, -0.732, 60.568, 40.831, -16.452, 14.380, -71.900, -144.960, 21.37, -0.767, -0.52322, -0.22659, 0.29407,
 08:15:38.698,d6:24:01:31:b7:6e, 2015-01-01 00:57:26.065, -0.61, -0.333, 0.754, -0.122, -0.427, 0.671, -23.67, 36.387, -103.019, 1.367, 9.813, -28.240, 23.21, 0.6228, 0.12192, 0.34399, -0.69196,
 08:15:38.715,f7:68:33:b1:9e:f1, 2015-01-01 01:01:41.300, -0.658, 0.677, 0.345, -2.747, 0.366, -1.16, 60.551, 40.842, -16.452, 14.380, -71.900, -144.960, 21.37, -0.767, -0.52322, -0.22659, 0.29407,
 08:15:38.715,f7:68:33:b1:9e:f1, 2015-01-01 01:01:41.300, -0.658, 0.677, 0.345, -2.747, 0.366, -1.16, 60.54, 40.847, -16.458, 14.380, -71.900, -144.960, 21.37, -0.767, -0.52322, -0.22659, 0.29407,
 08:15:38.715,f7:68:33:b1:9e:f1, 2015-01-01 01:01:41.300, -0.658, 0.677, 0.345, -2.747, 0.366, -1.16, 60.529, 40.853, -16.458, 14.380, -71.900, -144.960, 21.37, -0.767, -0.52322, -0.22659, 0.29407,
 08:15:38.715,f7:68:33:b1:9e:f1, 2015-01-01 01:01:41.300, -0.662, 0.677, 0.345, -2.747, 0.366, -1.16, 60.513, 40.858, -16.463, 14.380, -71.900, -144.960, 21.37, -0.767, -0.52322, -0.22659, 0.29407,
 08:15:38.715,f7:68:33:b1:9e:f1, 2015-01-01 01:01:41.300, -0.662, 0.681, 0.353, -2.014, 0.916, -2.625, 60.507, 40.875, -16.463, 14.380, -71.900, -144.960, 21.37, -0.767, -0.52322, -0.22659, 0.29407,
 08:15:38.715,f7:68:33:b1:9e:f1, 2015-01-01 01:01:41.300, -0.662, 0.681, 0.353, -2.014, 0.916, -2.625, 60.496, 40.891, -16.469, 14.380, -71.900, -144.960, 21.37, -0.767, -0.52322, -0.22659, 0.29407,
 08:15:38.715,f7:68:33:b1:9e:f1, 2015-01-01 01:01:41.300, -0.662, 0.681, 0.353, -2.014, 0.916, -2.625, 60.485, 40.902, -16.474, 14.380, -71.900, -144.960, 21.37, -0.767, -0.52322, -0.22659, 0.29407,
 08:15:38.715,f7:68:33:b1:9e:f1, 2015-01-01 01:01:41.300, -0.664, 0.681, 0.353, -2.014, 0.916, -2.625, 60.474, 40.919, -16.479, 14.380, -71.900, -144.960, 21.37, -0.767, -0.52322, -0.22659, 0.29407,
 08:15:38.775,f7:68:33:b1:9e:f1, 2015-01-01 01:01:41.625, -0.664, 0.681, 0.355, -1.099, 0.977, -3.296, 60.469, 40.935, -16.485, 14.380, -71.900, -144.960, 21.37, -0.767, -0.52322, -0.22659, 0.29407,
 08:15:38.775,f7:68:33:b1:9e:f1, 2015-01-01 01:01:41.625, -0.664, 0.681, 0.355, -1.099, 0.977, -3.296, 60.463, 40.952, -16.49, 14.380, -71.900, -144.960, 21.37, -0.767, -0.52322, -0.22659, 0.29407,
 08:15:38.775,f7:68:33:b1:9e:f1, 2015-01-01 01:01:41.625, -0.664, 0.681, 0.355, -1.099, 0.977, -3.296, 60.452, 40.968, -16.496, 14.380, -71.900, -144.960, 21.37, -0.767, -0.52322, -0.22659, 0.29407,
 08:15:38.775,f7:68:33:b1:9e:f1, 2015-01-01 01:01:41.625, -0.663, 0.681, 0.355, -1.099, 0.977, -3.296, 60.447, 40.99, -16.501, 14.380, -71.900, -144.960, 21.37, -0.767, -0.52322, -0.22659, 0.29407,
 08:15:38.775,f7:68:33:b1:9e:f1, 2015-01-01 01:01:41.625, -0.663, 0.682, 0.355, -0.122, 0.488, -5.249, 60.441, 41.012, -16.512, 14.380, -71.900, -144.960, 21.37, -0.767, -0.52322, -0.22659, 0.29407,
 08:15:38.775,f7:68:33:b1:9e:f1, 2015-01-01 01:01:41.625, -0.663, 0.682, 0.355, -0.122, 0.488, -5.249, 60.43, 41.034, -16.529, 14.380, -71.900, -144.960, 21.37, -0.767, -0.52322, -0.22659, 0.29407,
 08:15:38.775,f7:68:33:b1:9e:f1, 2015-01-01 01:01:41.625, -0.663, 0.682, 0.355, -0.122, 0.488, -5.249, 60.425, 41.061, -16.54, 14.380, -71.900, -144.960, 21.37, -0.767, -0.52322, -0.22659, 0.29407,
 08:15:38.775,f7:68:33:b1:9e:f1, 2015-01-01 01:01:41.625, -0.664, 0.682, 0.355, -0.122, 0.488, -5.249, 60.414, 41.083, -16.556, 14.380, -71.900, -144.960, 21.37, -0.767, -0.52322, -0.22659, 0.29407,
 08:15:38.805,f7:68:33:b1:9e:f1, 2015-01-01 01:01:41.625, -0.664, 0.67, 0.353, 0.122, 1.038, -5.92, 60.408, 41.111, -16.573, 14.380, -71.900, -144.960, 21.37, -0.767, -0.52322, -0.22659, 0.29407,
 08:15:38.805,f7:68:33:b1:9e:f1, 2015-01-01 01:01:41.625, -0.664, 0.67, 0.353, 0.122, 1.038, -5.92, 60.403, 41.138, -16.584, 14.380, -71.900, -144.960, 21.37, -0.767, -0.52322, -0.22659, 0.29407,
 08:15:38.805,f7:68:33:b1:9e:f1, 2015-01-01 01:01:41.625, -0.664, 0.67, 0.353, 0.122, 1.038, -5.92, 60.397, 41.166, -16.595, 14.380, -71.900, -144.960, 21.37, -0.767, -0.52322, -0.22659, 0.29407,
 08:15:38.805,f7:68:33:b1:9e:f1, 2015-01-01 01:01:41.625, -0.665, 0.67, 0.353, 0.122, 1.038, -5.92, 60.392, 41.199, -16.611, 14.380, -71.900, -144.960, 21.37, -0.767, -0.52322, -0.22659, 0.29407,
 08:15:38.805,f7:68:33:b1:9e:f1, 2015-01-01 01:01:41.625, -0.665, 0.667, 0.35, -0.366, 2.93, -8.118, 60.386, 41.237, -16.617, 14.380, -71.900, -144.960, 21.37, -0.767, -0.52322, -0.22659, 0.29407,
 08:15:38.805,f7:68:33:b1:9e:f1, 2015-01-01 01:01:41.625, -0.665, 0.667, 0.35, -0.366, 2.93, -8.118, 60.381, 41.281, -16.628, 14.380, -71.900, -144.960, 21.37, -0.767, -0.52322, -0.22659, 0.29407,
 08:15:38.805,f7:68:33:b1:9e:f1, 2015-01-01 01:01:41.625, -0.68, 0.667, 0.35, -0.366, 2.93, -8.118, 60.375, 41.32, -16.639, 14.380, -71.900, -144.960, 21.37, -0.767, -0.52322, -0.22659, 0.29407,
 08:15:38.805,f7:68:33:b1:9e:f1, 2015-01-01 01:01:41.625, -0.68, 0.664, 0.35, 0.122, 1.831, -8.606, 60.364, 41.364, -16.655, 14.380, -71.900, -144.960, 21.37, -0.767, -0.52322, -0.22659, 0.29407,
 08:15:38.818,d6:24:01:31:b7:6e, 2015-01-01 00:57:26.480, -0.606, -0.33, 0.752, 0.244, -2.136, 0.916, -23.593, 36.337, -102.662, 1.367, 9.813, -28.240, 23.21, 0.63141, 0.11652, 0.34216, -0.68597,
 08:15:38.835,f7:68:33:b1:9e:f1, 2015-01-01 01:01:41.625, -0.68, 0.664, 0.35, 0.122, 1.831, -8.606, 60.353, 41.407, -16.672, 14.380, -71.900, -144.960, 21.37, -0.767, -0.52322, -0.22659, 0.29407,
 08:15:38.835,f7:68:33:b1:9e:f1, 2015-01-01 01:01:41.625, -0.68, 0.664, 0.35, 0.122, 1.831, -8.606, 60.348, 41.446, -16.688, 14.380, -71.900, -144.960, 21.37, -0.767, -0.52322, -0.22659, 0.29407,
 08:15:38.835,f7:68:33:b1:9e:f1, 2015-01-01 01:01:41.625, -0.68, 0.664, 0.35, 0.122, 1.831, -8.606, 60.337, 41.49, -16.705, 14.380, -71.900, -144.960, 21.37, -0.767, -0.52322, -0.22659, 0.29407,
 08:15:38.835,f7:68:33:b1:9e:f1, 2015-01-01 01:01:41.625, -0.68, 0.657, 0.346, -0.488, 3.174, -11.963, 60.326, 41.545, -16.727, 14.380, -71.900, -144.960, 21.37, -0.767, -0.52322, -0.22659, 0.29407,
 08:15:38.835,f7:68:33:b1:9e:f1, 2015-01-01 01:01:41.625, -0.68, 0.657, 0.346, -0.488, 3.174, -11.963, 60.309, 41.605, -16.743, 14.380, -71.900, -144.960, 21.37, -0.767, -0.52322, -0.22659, 0.29407,
 08:15:38.835,f7:68:33:b1:9e:f1, 2015-01-01 01:01:41.625, -0.68, 0.657, 0.346, -0.488, 3.174, -11.963, 60.298, 41.666, -16.765, 14.380, -71.900, -144.960, 21.37, -0.767, -0.52322, -0.22659, 0.29407,
 08:15:38.836,f7:68:33:b1:9e:f1, 2015-01-01 01:01:41.625, -0.691, 0.657, 0.346, -0.488, 3.174, -11.963, 60.282, 41.726, -16.782, 14.380, -71.900, -144.960, 21.37, -0.767, -0.52322, -0.22659, 0.29407,
 08:15:38.836,f7:68:33:b1:9e:f1, 2015-01-01 01:01:41.625, -0.691, 0.647, 0.344, -1.038, 3.601, -10.437, 60.271, 41.781, -16.798, 14.380, -71.900, -144.960, 21.37, -0.767, -0.52322, -0.22659, 0.29407,
 08:15:38.895,f7:68:33:b1:9e:f1, 2015-01-01 01:01:41.625, -0.691, 0.647, 0.344, -1.038, 3.601, -10.437, 60.26, 41.83, -16.809, 14.380, -71.900, -144.960, 21.37, -0.767, -0.52322, -0.22659, 0.29407,
 08:15:38.895,f7:68:33:b1:9e:f1, 2015-01-01 01:01:41.625, -0.691, 0.647, 0.344, -1.038, 3.601, -10.437, 60.249, 41.885, -16.82, 14.380, -71.900, -144.960, 21.37, -0.767, -0.52322, -0.22659, 0.29407,
 08:15:38.895,f7:68:33:b1:9e:f1, 2015-01-01 01:01:41.625, -0.69, 0.647, 0.344, -1.038, 3.601, -10.437, 60.233, 41.94, -16.837, 14.380, -71.900, -144.960, 21.37, -0.767, -0.52322, -0.22659, 0.29407,
 08:15:38.895,f7:68:33:b1:9e:f1, 2015-01-01 01:01:41.625, -0.69, 0.65, 0.347, -1.221, 2.869, -6.47, 60.227, 41.973, -16.837, 14.380, -71.900, -144.960, 21.37, -0.767, -0.52322, -0.22659, 0.29407,
 08:15:38.895,f7:68:33:b1:9e:f1, 2015-01-01 01:01:41.625, -0.69, 0.65, 0.347, -1.221, 2.869, -6.47, 60.222, 42.012, -16.842, 14.380, -71.900, -144.960, 21.37, -0.767, -0.52322, -0.22659, 0.29407,
 08:15:38.895,f7:68:33:b1:9e:f1, 2015-01-01 01:01:41.625, -0.69, 0.65, 0.347, -1.221, 2.869, -6.47, 60.211, 42.045, -16.848, 14.380, -71.900, -144.960, 21.37, -0.767, -0.52322, -0.22659, 0.29407,
 08:15:38.895,f7:68:33:b1:9e:f1, 2015-01-01 01:01:41.625, -0.685, 0.65, 0.347, -1.221, 2.869, -6.47, 60.205, 42.078, -16.853, 14.380, -71.900, -144.960, 21.37, -0.767, -0.52322, -0.22659, 0.29407,
 08:15:38.895,f7:68:33:b1:9e:f1, 2015-01-01 01:01:41.625, -0.685, 0.65, 0.344, -0.305, 3.174, -5.737, 60.205, 42.111, -16.853, 14.380, -71.900, -144.960, 21.37, -0.767, -0.52322, -0.22659, 0.29407,
 08:15:38.909,d6:24:01:31:b7:6e, 2015-01-01 00:57:26.480, -0.601, -0.33, 0.763, -0.427, -1.404, -1.587, -23.593, 36.205, -102.382, 1.367, 9.813, -28.240, 23.21, 0.63141, 0.11652, 0.34216, -0.68597,
 08:15:38.926,f7:68:33:b1:9e:f1, 2015-01-01 01:01:41.625, -0.685, 0.65, 0.344, -0.305, 3.174, -5.737, 60.205, 42.144, -16.853, 14.380, -71.900, -144.960, 21.37, -0.767, -0.52322, -0.22659, 0.29407,
 08:15:38.926,f7:68:33:b1:9e:f1, 2015-01-01 01:01:41.625, -0.685, 0.65, 0.344, -0.305, 3.174, -5.737, 60.205, 42.177, -16.853, 14.380, -71.900, -144.960, 21.37, -0.767, -0.52322, -0.22659, 0.29407,
 08:15:38.926,f7:68:33:b1:9e:f1, 2015-01-01 01:01:41.625, -0.687, 0.65, 0.344, -0.305, 3.174, -5.737, 60.205, 42.209, -16.853, 14.380, -71.900, -144.960, 21.37, -0.767, -0.52322, -0.22659, 0.29407,
 08:15:38.926,f7:68:33:b1:9e:f1, 2015-01-01 01:01:41.625, -0.687, 0.648, 0.335, -0.854, 3.418, -4.578, 60.205, 42.237, -16.848, 14.380, -71.900, -144.960, 21.37, -0.767, -0.52322, -0.22659, 0.29407,
 08:15:38.926,f7:68:33:b1:9e:f1, 2015-01-01 01:01:41.625, -0.687, 0.648, 0.335, -0.854, 3.418, -4.578, 60.205, 42.264, -16.842, 14.380, -71.900, -144.960, 21.37, -0.767, -0.52322, -0.22659, 0.29407,
 08:15:38.927,f7:68:33:b1:9e:f1, 2015-01-01 01:01:41.625, -0.687, 0.648, 0.335, -0.854, 3.418, -4.578, 60.205, 42.292, -16.837, 14.380, -71.900, -144.960, 21.37, -0.767, -0.52322, -0.22659, 0.29407,
 08:15:38.927,f7:68:33:b1:9e:f1, 2015-01-01 01:01:41.625, -0.682, 0.648, 0.335, -0.854, 3.418, -4.578, 60.205, 42.319, -16.831, 14.380, -71.900, -144.960, 21.37, -0.767, -0.52322, -0.22659, 0.29407,
 08:15:38.927,f7:68:33:b1:9e:f1, 2015-01-01 01:01:41.625, -0.682, 0.656, 0.334, -1.221, 2.197, -3.967, 60.2, 42.347, -16.831, 14.380, -71.900, -144.960, 21.37, -0.767, -0.52322, -0.22659, 0.29407,
 08:15:38.955,f7:68:33:b1:9e:f1, 2015-01-01 01:01:41.625, -0.682, 0.656, 0.334, -1.221, 2.197, -3.967, 60.194, 42.369, -16.831, 14.960, -71.280, -144.753, 21.37, -0.767, -0.52322, -0.22659, 0.29407,
 08:15:38.955,f7:68:33:b1:9e:f1, 2015-01-01 01:01:41.625, -0.682, 0.656, 0.334, -1.221, 2.197, -3.967, 60.194, 42.391, -16.831, 14.960, -71.280, -144.753, 21.37, -0.767, -0.52322, -0.22659, 0.29407,
 08:15:38.955,f7:68:33:b1:9e:f1, 2015-01-01 01:01:41.625, -0.68, 0.656, 0.334, -1.221, 2.197, -3.967, 60.189, 42.413, -16.837, 14.960, -71.280, -144.753, 21.37, -0.767, -0.52322, -0.22659, 0.29407,
 08:15:38.955,f7:68:33:b1:9e:f1, 2015-01-01 01:01:41.625, -0.68, 0.655, 0.333, -0.61, 1.77, -5.859, 60.183, 42.44, -16.842, 14.960, -71.280, -144.753, 21.37, -0.767, -0.52322, -0.22659, 0.29407,
 08:15:38.955,f7:68:33:b1:9e:f1, 2015-01-01 01:01:41.625, -0.68, 0.655, 0.333, -0.61, 1.77, -5.859, 60.172, 42.473, -16.853, 14.960, -71.280, -144.753, 21.37, -0.767, -0.52322, -0.22659, 0.29407,
 08:15:38.955,f7:68:33:b1:9e:f1, 2015-01-01 01:01:41.625, -0.68, 0.655, 0.333, -0.61, 1.77, -5.859, 60.167, 42.501, -16.859, 14.960, -71.280, -144.753, 21.37, -0.767, -0.52322, -0.22659, 0.29407,
 08:15:38.955,f7:68:33:b1:9e:f1, 2015-01-01 01:01:41.625, -0.687, 0.655, 0.333, -0.61, 1.77, -5.859, 60.161, 42.534, -16.87, 14.960, -71.280, -144.753, 21.37, -0.767, -0.52322, -0.22659, 0.29407,
 08:15:38.955,f7:68:33:b1:9e:f1, 2015-01-01 01:01:41.625, -0.687, 0.65, 0.329, -1.038, 0.977, -4.883, 60.15, 42.556, -16.88, 14.960, -71.280, -144.753, 21.37, -0.767, -0.52322, -0.22659, 0.29407,
 08:15:39.015,f7:68:33:b1:9e:f1, 2015-01-01 01:01:41.625, -0.687, 0.65, 0.329, -1.038, 0.977, -4.883, 60.139, 42.578, -16.891, 14.960, -71.280, -144.753, 21.37, -0.767, -0.52322, -0.22659, 0.29407,
 08:15:39.015,f7:68:33:b1:9e:f1, 2015-01-01 01:01:41.625, -0.687, 0.65, 0.329, -1.038, 0.977, -4.883, 60.128, 42.599, -16.902, 14.960, -71.280, -144.753, 21.37, -0.767, -0.52322, -0.22659, 0.29407,
 08:15:39.015,f7:68:33:b1:9e:f1, 2015-01-01 01:01:41.625, -0.685, 0.65, 0.329, -1.038, 0.977, -4.883, 60.123, 42.627, -16.913, 14.960, -71.280, -144.753, 21.37, -0.767, -0.52322, -0.22659, 0.29407,
 08:15:39.015,f7:68:33:b1:9e:f1, 2015-01-01 01:01:41.625, -0.685, 0.65, 0.328, -1.587, 0.61, -3.357, 60.112, 42.643, -16.919, 14.960, -71.280, -144.753, 21.37, -0.767, -0.52322, -0.22659, 0.29407,
 08:15:39.015,f7:68:33:b1:9e:f1, 2015-01-01 01:01:41.625, -0.685, 0.65, 0.328, -1.587, 0.61, -3.357, 60.101, 42.66, -16.93, 14.960, -71.280, -144.753, 21.37, -0.767, -0.52322, -0.22659, 0.29407,
 08:15:39.015,f7:68:33:b1:9e:f1, 2015-01-01 01:01:41.625, -0.685, 0.65, 0.328, -1.587, 0.61, -3.357, 60.09, 42.671, -16.935, 14.960, -71.280, -144.753, 21.37, -0.767, -0.52322, -0.22659, 0.29407,
 08:15:39.015,f7:68:33:b1:9e:f1, 2015-01-01 01:01:41.625, -0.682, 0.65, 0.328, -1.587, 0.61, -3.357, 60.079, 42.687, -16.946, 14.960, -71.280, -144.753, 21.37, -0.767, -0.52322, -0.22659, 0.29407,
 08:15:39.016,f7:68:33:b1:9e:f1, 2015-01-01 01:01:41.625, -0.682, 0.655, 0.33, -1.953, -0.244, -2.258, 60.068, 42.698, -16.952, 14.960, -71.280, -144.753, 21.37, -0.767, -0.52322, -0.22659, 0.29407,
 08:15:39.027,d6:24:01:31:b7:6e, 2015-01-01 00:57:26.480, -0.611, -0.335, 0.756, -2.502, -0.366, 0.305, -23.758, 36.107, -102.167, 1.367, 9.813, -28.240, 23.21, 0.63141, 0.11652, 0.34216, -0.68597,
 08:15:39.046,f7:68:33:b1:9e:f1, 2015-01-01 01:01:41.625, -0.682, 0.655, 0.33, -1.953, -0.244, -2.258, 60.051, 42.709, -16.963, 14.960, -71.280, -144.753, 21.37, -0.76199, -0.51993, -0.23889, 0.3031,
 08:15:39.046,f7:68:33:b1:9e:f1, 2015-01-01 01:01:41.625, -0.682, 0.655, 0.33, -1.953, -0.244, -2.258, 60.04, 42.715, -16.974, 14.960, -71.280, -144.753, 21.37, -0.76199, -0.51993, -0.23889, 0.3031,
 08:15:39.046,f7:68:33:b1:9e:f1, 2015-01-01 01:01:41.625, -0.681, 0.655, 0.33, -1.953, -0.244, -2.258, 60.029, 42.726, -16.985, 14.960, -71.280, -144.753, 21.37, -0.76199, -0.51993, -0.23889, 0.3031,
 08:15:39.046,f7:68:33:b1:9e:f1, 2015-01-01 01:01:41.625, -0.681, 0.657, 0.336, -1.16, -1.282, -2.197, 60.013, 42.731, -16.996, 14.960, -71.280, -144.753, 21.37, -0.76199, -0.51993, -0.23889, 0.3031,
 08:15:39.046,f7:68:33:b1:9e:f1, 2015-01-01 01:01:41.625, -0.681, 0.657, 0.336, -1.16, -1.282, -2.197, 60.002, 42.737, -17.012, 14.960, -71.280, -144.753, 21.37, -0.76199, -0.51993, -0.23889, 0.3031,
 08:15:39.046,f7:68:33:b1:9e:f1, 2015-01-01 01:01:41.625, -0.681, 0.657, 0.336, -1.16, -1.282, -2.197, 59.991, 42.748, -17.029, 14.960, -71.280, -144.753, 21.37, -0.76199, -0.51993, -0.23889, 0.3031,
 08:15:39.047,f7:68:33:b1:9e:f1, 2015-01-01 01:01:41.625, -0.684, 0.657, 0.336, -1.16, -1.282, -2.197, 59.974, 42.753, -17.045, 14.960, -71.280, -144.753, 21.37, -0.76199, -0.51993, -0.23889, 0.3031,
 08:15:39.047,f7:68:33:b1:9e:f1, 2015-01-01 01:01:41.625, -0.684, 0.653, 0.337, -0.244, -1.465, -2.686, 59.969, 42.759, -17.062, 14.960, -71.280, -144.753, 21.37, -0.76199, -0.51993, -0.23889, 0.3031,
 08:15:39.075,f7:68:33:b1:9e:f1, 2015-01-01 01:01:41.625, -0.684, 0.653, 0.337, -0.244, -1.465, -2.686, 59.958, 42.77, -17.084, 14.960, -71.280, -144.753, 21.37, -0.76199, -0.51993, -0.23889, 0.3031,
 08:15:39.075,f7:68:33:b1:9e:f1, 2015-01-01 01:01:41.625, -0.684, 0.653, 0.337, -0.244, -1.465, -2.686, 59.947, 42.775, -17.1, 14.960, -71.280, -144.753, 21.37, -0.76199, -0.51993, -0.23889, 0.3031,
 08:15:39.075,f7:68:33:b1:9e:f1, 2015-01-01 01:01:41.625, -0.689, 0.653, 0.337, -0.244, -1.465, -2.686, 59.936, 42.786, -17.117, 14.960, -71.280, -144.753, 21.37, -0.76199, -0.51993, -0.23889, 0.3031,
 08:15:39.075,f7:68:33:b1:9e:f1, 2015-01-01 01:01:41.625, -0.689, 0.649, 0.338, -0.183, -1.892, -2.869, 59.925, 42.792, -17.139, 14.960, -71.280, -144.753, 21.37, -0.76199, -0.51993, -0.23889, 0.3031,
 08:15:39.075,f7:68:33:b1:9e:f1, 2015-01-01 01:01:41.625, -0.689, 0.649, 0.338, -0.183, -1.892, -2.869, 59.914, 42.797, -17.161, 14.960, -71.280, -144.753, 21.37, -0.76199, -0.51993, -0.23889, 0.3031,
 08:15:39.075,f7:68:33:b1:9e:f1, 2015-01-01 01:01:41.625, -0.689, 0.649, 0.338, -0.183, -1.892, -2.869, 59.903, 42.808, -17.183, 14.960, -71.280, -144.753, 21.37, -0.76199, -0.51993, -0.23889, 0.3031,
 08:15:39.076,f7:68:33:b1:9e:f1, 2015-01-01 01:01:41.625, -0.692, 0.649, 0.338, -0.183, -1.892, -2.869, 59.892, 42.814, -17.205, 14.960, -71.280, -144.753, 21.37, -0.76199, -0.51993, -0.23889, 0.3031,
 08:15:39.076,f7:68:33:b1:9e:f1, 2015-01-01 01:01:41.625, -0.692, 0.646, 0.338, -0.183, -1.038, -3.967, 59.881, 42.83, -17.227, 14.960, -71.280, -144.753, 21.37, -0.76199, -0.51993, -0.23889, 0.3031,
 08:15:39.089,d6:24:01:31:b7:6e, 2015-01-01 00:57:26.480, -0.604, -0.336, 0.745, -0.122, -0.732, 0.305, -23.796, 36.09, -101.86, 1.307, 9.820, -28.333, 23.21, 0.63141, 0.11652, 0.34216, -0.68597,
 08:15:39.134,f7:68:33:b1:9e:f1, 2015-01-01 01:01:41.985, -0.692, 0.646, 0.338, -0.183, -1.038, -3.967, 59.87, 42.847, -17.243, 14.960, -71.280, -144.753, 21.37, -0.76199, -0.51993, -0.23889, 0.3031,
 08:15:39.134,f7:68:33:b1:9e:f1, 2015-01-01 01:01:41.985, -0.692, 0.646, 0.338, -0.183, -1.038, -3.967, 59.859, 42.858, -17.265, 14.960, -71.280, -144.753, 21.37, -0.76199, -0.51993, -0.23889, 0.3031,
 08:15:39.134,f7:68:33:b1:9e:f1, 2015-01-01 01:01:41.985, -0.691, 0.646, 0.338, -0.183, -1.038, -3.967, 59.848, 42.874, -17.287, 14.960, -71.280, -144.753, 21.37, -0.76199, -0.51993, -0.23889, 0.3031,
 08:15:39.134,f7:68:33:b1:9e:f1, 2015-01-01 01:01:41.985, -0.691, 0.642, 0.337, -0.488, -1.892, -3.601, 59.832, 42.885, -17.309, 14.960, -71.280, -144.753, 21.37, -0.76199, -0.51993, -0.23889, 0.3031,
 08:15:39.134,f7:68:33:b1:9e:f1, 2015-01-01 01:01:41.985, -0.691, 0.642, 0.337, -0.488, -1.892, -3.601, 59.815, 42.896, -17.331, 14.960, -71.280, -144.753, 21.37, -0.76199, -0.51993, -0.23889, 0.3031,
 08:15:39.134,f7:68:33:b1:9e:f1, 2015-01-01 01:01:41.985, -0.691, 0.642, 0.337, -0.488, -1.892, -3.601, 59.799, 42.907, -17.358, 14.960, -71.280, -144.753, 21.37, -0.76199, -0.51993, -0.23889, 0.3031,
 08:15:39.135,f7:68:33:b1:9e:f1, 2015-01-01 01:01:41.985, -0.694, 0.642, 0.337, -0.488, -1.892, -3.601, 59.788, 42.918, -17.38, 14.960, -71.280, -144.753, 21.37, -0.76199, -0.51993, -0.23889, 0.3031,
 08:15:39.135,f7:68:33:b1:9e:f1, 2015-01-01 01:01:41.985, -0.694, 0.641, 0.341, -1.099, -1.526, -3.723, 59.771, 42.935, -17.402, 14.960, -71.280, -144.753, 21.37, -0.76199, -0.51993, -0.23889, 0.3031,
 08:15:39.165,f7:68:33:b1:9e:f1, 2015-01-01 01:01:41.985, -0.694, 0.641, 0.341, -1.099, -1.526, -3.723, 59.755, 42.946, -17.424, 14.960, -71.280, -144.753, 21.37, -0.76199, -0.51993, -0.23889, 0.3031,
 08:15:39.165,f7:68:33:b1:9e:f1, 2015-01-01 01:01:41.985, -0.694, 0.641, 0.341, -1.099, -1.526, -3.723, 59.733, 42.957, -17.446, 14.960, -71.280, -144.753, 21.37, -0.76199, -0.51993, -0.23889, 0.3031,
 08:15:39.165,f7:68:33:b1:9e:f1, 2015-01-01 01:01:41.985, -0.7, 0.641, 0.341, -1.099, -1.526, -3.723, 59.716, 42.973, -17.468, 14.960, -71.280, -144.753, 21.37, -0.76199, -0.51993, -0.23889, 0.3031,
 08:15:39.165,f7:68:33:b1:9e:f1, 2015-01-01 01:01:41.985, -0.7, 0.639, 0.346, -1.343, -1.404, -4.089, 59.7, 42.99, -17.49, 14.960, -71.280, -144.753, 21.37, -0.76199, -0.51993, -0.23889, 0.3031,
 08:15:39.165,f7:68:33:b1:9e:f1, 2015-01-01 01:01:41.985, -0.7, 0.639, 0.346, -1.343, -1.404, -4.089, 59.678, 43, -17.512, 14.960, -71.280, -144.753, 21.37, -0.76199, -0.51993, -0.23889, 0.3031,
 08:15:39.165,f7:68:33:b1:9e:f1, 2015-01-01 01:01:41.985, -0.7, 0.639, 0.346, -1.343, -1.404, -4.089, 59.661, 43.017, -17.534, 14.960, -71.280, -144.753, 21.37, -0.76199, -0.51993, -0.23889, 0.3031,
 08:15:39.165,f7:68:33:b1:9e:f1, 2015-01-01 01:01:41.985, -0.7, 0.639, 0.346, -1.343, -1.404, -4.089, 59.639, 43.033, -17.562, 14.960, -71.280, -144.753, 21.37, -0.76199, -0.51993, -0.23889, 0.3031,
 08:15:39.165,f7:68:33:b1:9e:f1, 2015-01-01 01:01:41.985, -0.7, 0.637, 0.349, -1.099, -1.282, -4.517, 59.623, 43.05, -17.584, 14.960, -71.280, -144.753, 21.37, -0.76199, -0.51993, -0.23889, 0.3031,
 08:15:39.195,f7:68:33:b1:9e:f1, 2015-01-01 01:01:41.985, -0.7, 0.637, 0.349, -1.099, -1.282, -4.517, 59.606, 43.066, -17.606, 14.960, -71.280, -144.753, 21.37, -0.76199, -0.51993, -0.23889, 0.3031,
 08:15:39.195,f7:68:33:b1:9e:f1, 2015-01-01 01:01:41.985, -0.7, 0.637, 0.349, -1.099, -1.282, -4.517, 59.584, 43.083, -17.628, 14.960, -71.280, -144.753, 21.37, -0.76199, -0.51993, -0.23889, 0.3031,
 08:15:39.195,f7:68:33:b1:9e:f1, 2015-01-01 01:01:41.985, -0.699, 0.637, 0.349, -1.099, -1.282, -4.517, 59.568, 43.099, -17.655, 14.960, -71.280, -144.753, 21.37, -0.76199, -0.51993, -0.23889, 0.3031,
 08:15:39.195,f7:68:33:b1:9e:f1, 2015-01-01 01:01:41.985, -0.699, 0.634, 0.349, -0.916, -1.77, -3.906, 59.551, 43.116, -17.677, 14.960, -71.280, -144.753, 21.37, -0.76199, -0.51993, -0.23889, 0.3031,
 08:15:39.195,f7:68:33:b1:9e:f1, 2015-01-01 01:01:41.985, -0.699, 0.634, 0.349, -0.916, -1.77, -3.906, 59.529, 43.127, -17.699, 14.960, -71.280, -144.753, 21.37, -0.76199, -0.51993, -0.23889, 0.3031,
 08:15:39.195,f7:68:33:b1:9e:f1, 2015-01-01 01:01:41.985, -0.699, 0.634, 0.349, -0.916, -1.77, -3.906, 59.513, 43.143, -17.726, 14.960, -71.280, -144.753, 21.37, -0.76199, -0.51993, -0.23889, 0.3031,
 08:15:39.195,f7:68:33:b1:9e:f1, 2015-01-01 01:01:41.985, -0.7, 0.634, 0.349, -0.916, -1.77, -3.906, 59.491, 43.154, -17.748, 14.960, -71.280, -144.753, 21.37, -0.76199, -0.51993, -0.23889, 0.3031,
 08:15:39.195,f7:68:33:b1:9e:f1, 2015-01-01 01:01:41.985, -0.7, 0.635, 0.352, -1.404, -0.366, -4.211, 59.474, 43.176, -17.765, 14.960, -71.280, -144.753, 21.37, -0.76199, -0.51993, -0.23889, 0.3031,
 08:15:39.209,d6:24:01:31:b7:6e, 2015-01-01 00:57:26.480, -0.594, -0.337, 0.752, 0.916, -1.221, -1.343, -23.802, 35.986, -101.695, 1.307, 9.820, -28.333, 23.21, 0.63733, 0.11002, 0.34259, -0.68134,
 08:15:39.254,f7:68:33:b1:9e:f1, 2015-01-01 01:01:41.985, -0.7, 0.635, 0.352, -1.404, -0.366, -4.211, 59.458, 43.193, -17.781, 14.960, -71.280, -144.753, 21.37, -0.76199, -0.51993, -0.23889, 0.3031,
 08:15:39.254,f7:68:33:b1:9e:f1, 2015-01-01 01:01:41.985, -0.7, 0.635, 0.352, -1.404, -0.366, -4.211, 59.442, 43.209, -17.798, 14.960, -71.280, -144.753, 21.37, -0.76199, -0.51993, -0.23889, 0.3031,
 08:15:39.254,f7:68:33:b1:9e:f1, 2015-01-01 01:01:41.985, -0.708, 0.635, 0.352, -1.404, -0.366, -4.211, 59.425, 43.231, -17.82, 14.960, -71.280, -144.753, 21.37, -0.76199, -0.51993, -0.23889, 0.3031,
 08:15:39.254,f7:68:33:b1:9e:f1, 2015-01-01 01:01:41.985, -0.708, 0.632, 0.354, -1.343, -0.122, -3.601, 59.414, 43.248, -17.831, 14.960, -71.280, -144.753, 21.37, -0.76199, -0.51993, -0.23889, 0.3031,
 08:15:39.254,f7:68:33:b1:9e:f1, 2015-01-01 01:01:41.985, -0.708, 0.632, 0.354, -1.343, -0.122, -3.601, 59.398, 43.264, -17.842, 14.960, -71.280, -144.753, 21.37, -0.76199, -0.51993, -0.23889, 0.3031,
 08:15:39.254,f7:68:33:b1:9e:f1, 2015-01-01 01:01:41.985, -0.708, 0.632, 0.354, -1.343, -0.122, -3.601, 59.387, 43.281, -17.858, 14.960, -71.280, -144.753, 21.37, -0.76199, -0.51993, -0.23889, 0.3031,
 08:15:39.254,f7:68:33:b1:9e:f1, 2015-01-01 01:01:41.985, -0.706, 0.632, 0.354, -1.343, -0.122, -3.601, 59.37, 43.297, -17.869, 14.960, -71.280, -144.753, 21.37, -0.76199, -0.51993, -0.23889, 0.3031,
 08:15:39.255,f7:68:33:b1:9e:f1, 2015-01-01 01:01:41.985, -0.706, 0.631, 0.355, -0.977, -0.61, -3.235, 59.359, 43.308, -17.886, 14.960, -71.280, -144.753, 21.37, -0.76199, -0.51993, -0.23889, 0.3031,
 08:15:39.285,f7:68:33:b1:9e:f1, 2015-01-01 01:01:41.985, -0.706, 0.631, 0.355, -0.977, -0.61, -3.235, 59.343, 43.325, -17.902, 14.960, -71.280, -144.753, 21.37, -0.76199, -0.51993, -0.23889, 0.3031,
 08:15:39.285,f7:68:33:b1:9e:f1, 2015-01-01 01:01:41.985, -0.706, 0.631, 0.355, -0.977, -0.61, -3.235, 59.332, 43.336, -17.919, 14.960, -71.280, -144.753, 21.37, -0.76199, -0.51993, -0.23889, 0.3031,
 08:15:39.285,f7:68:33:b1:9e:f1, 2015-01-01 01:01:41.985, -0.704, 0.631, 0.355, -0.977, -0.61, -3.235, 59.315, 43.352, -17.93, 14.960, -71.280, -144.753, 21.37, -0.76199, -0.51993, -0.23889, 0.3031,
 08:15:39.285,f7:68:33:b1:9e:f1, 2015-01-01 01:01:41.985, -0.704, 0.632, 0.356, -1.16, -0.183, -2.93, 59.304, 43.363, -17.941, 14.960, -71.280, -144.753, 21.37, -0.76199, -0.51993, -0.23889, 0.3031,
 08:15:39.285,f7:68:33:b1:9e:f1, 2015-01-01 01:01:41.985, -0.704, 0.632, 0.356, -1.16, -0.183, -2.93, 59.288, 43.38, -17.957, 14.960, -71.280, -144.753, 21.37, -0.76199, -0.51993, -0.23889, 0.3031,
 08:15:39.285,f7:68:33:b1:9e:f1, 2015-01-01 01:01:41.985, -0.703, 0.632, 0.356, -1.16, -0.183, -2.93, 59.277, 43.391, -17.968, 14.960, -71.280, -144.753, 21.37, -0.76199, -0.51993, -0.23889, 0.3031,
 08:15:39.285,f7:68:33:b1:9e:f1, 2015-01-01 01:01:41.985, -0.703, 0.634, 0.361, -0.549, -0.244, -2.869, 59.266, 43.401, -17.979, 14.960, -71.280, -144.753, 21.37, -0.76199, -0.51993, -0.23889, 0.3031,
 08:15:39.286,f7:68:33:b1:9e:f1, 2015-01-01 01:01:41.985, -0.703, 0.634, 0.361, -0.549, -0.244, -2.869, 59.255, 43.418, -17.99, 14.960, -71.280, -144.753, 21.37, -0.76199, -0.51993, -0.23889, 0.3031,
 08:15:39.298,d6:24:01:31:b7:6e, 2015-01-01 00:57:26.900, -0.593, -0.336, 0.768, -0.183, -1.526, -1.038, -23.741, 35.832, -101.519, 1.307, 9.820, -28.333, 23.21, 0.63733, 0.11002, 0.34259, -0.68134,
 08:15:39.316,f7:68:33:b1:9e:f1, 2015-01-01 01:01:41.985, -0.703, 0.634, 0.361, -0.549, -0.244, -2.869, 59.249, 43.429, -18.001, 15.220, -70.227, -145.340, 21.37, -0.76199, -0.51993, -0.23889, 0.3031,
 08:15:39.316,f7:68:33:b1:9e:f1, 2015-01-01 01:01:41.985, -0.707, 0.634, 0.361, -0.549, -0.244, -2.869, 59.238, 43.44, -18.012, 15.220, -70.227, -145.340, 21.37, -0.76199, -0.51993, -0.23889, 0.3031,
 08:15:39.316,f7:68:33:b1:9e:f1, 2015-01-01 01:01:41.985, -0.707, 0.628, 0.354, 0.427, 0.977, -3.601, 59.233, 43.462, -18.018, 15.220, -70.227, -145.340, 21.37, -0.76199, -0.51993, -0.23889, 0.3031,
 08:15:39.316,f7:68:33:b1:9e:f1, 2015-01-01 01:01:41.985, -0.707, 0.628, 0.354, 0.427, 0.977, -3.601, 59.233, 43.478, -18.029, 15.220, -70.227, -145.340, 21.37, -0.76199, -0.51993, -0.23889, 0.3031,
 08:15:39.316,f7:68:33:b1:9e:f1, 2015-01-01 01:01:41.985, -0.707, 0.628, 0.354, 0.427, 0.977, -3.601, 59.233, 43.5, -18.034, 15.220, -70.227, -145.340, 21.37, -0.76199, -0.51993, -0.23889, 0.3031,
 08:15:39.316,f7:68:33:b1:9e:f1, 2015-01-01 01:01:41.985, -0.709, 0.628, 0.354, 0.427, 0.977, -3.601, 59.227, 43.517, -18.04, 15.220, -70.227, -145.340, 21.37, -0.76199, -0.51993, -0.23889, 0.3031,
 08:15:39.317,f7:68:33:b1:9e:f1, 2015-01-01 01:01:41.985, -0.709, 0.628, 0.351, -0.671, 2.319, -4.15, 59.227, 43.544, -18.04, 15.220, -70.227, -145.340, 21.37, -0.76199, -0.51993, -0.23889, 0.3031,
 08:15:39.317,f7:68:33:b1:9e:f1, 2015-01-01 01:01:41.985, -0.709, 0.628, 0.351, -0.671, 2.319, -4.15, 59.222, 43.566, -18.04, 15.220, -70.227, -145.340, 21.37, -0.76199, -0.51993, -0.23889, 0.3031,
 08:15:39.375,f7:68:33:b1:9e:f1, 2015-01-01 01:01:41.985, -0.709, 0.628, 0.351, -0.671, 2.319, -4.15, 59.216, 43.594, -18.045, 15.220, -70.227, -145.340, 21.37, -0.76199, -0.51993, -0.23889, 0.3031,
 08:15:39.375,f7:68:33:b1:9e:f1, 2015-01-01 01:01:41.985, -0.707, 0.628, 0.351, -0.671, 2.319, -4.15, 59.216, 43.616, -18.045, 15.220, -70.227, -145.340, 21.37, -0.76199, -0.51993, -0.23889, 0.3031,
 08:15:39.375,f7:68:33:b1:9e:f1, 2015-01-01 01:01:41.985, -0.707, 0.629, 0.35, -0.427, 2.869, -4.456, 59.216, 43.643, -18.04, 15.220, -70.227, -145.340, 21.37, -0.76199, -0.51993, -0.23889, 0.3031,
 08:15:39.375,f7:68:33:b1:9e:f1, 2015-01-01 01:01:41.985, -0.707, 0.629, 0.35, -0.427, 2.869, -4.456, 59.211, 43.671, -18.04, 15.220, -70.227, -145.340, 21.37, -0.76199, -0.51993, -0.23889, 0.3031,
 08:15:39.375,f7:68:33:b1:9e:f1, 2015-01-01 01:01:41.985, -0.707, 0.629, 0.35, -0.427, 2.869, -4.456, 59.211, 43.698, -18.04, 15.220, -70.227, -145.340, 21.37, -0.76199, -0.51993, -0.23889, 0.3031,
 08:15:39.375,f7:68:33:b1:9e:f1, 2015-01-01 01:01:41.985, -0.701, 0.629, 0.35, -0.427, 2.869, -4.456, 59.211, 43.726, -18.034, 15.220, -70.227, -145.340, 21.37, -0.76199, -0.51993, -0.23889, 0.3031,
 08:15:39.376,f7:68:33:b1:9e:f1, 2015-01-01 01:01:41.985, -0.701, 0.628, 0.348, 0, 1.648, -2.502, 59.211, 43.742, -18.034, 15.220, -70.227, -145.340, 21.37, -0.76199, -0.51993, -0.23889, 0.3031,
 08:15:39.376,f7:68:33:b1:9e:f1, 2015-01-01 01:01:41.985, -0.701, 0.628, 0.348, 0, 1.648, -2.502, 59.216, 43.759, -18.034, 15.220, -70.227, -145.340, 21.37, -0.76199, -0.51993, -0.23889, 0.3031,
 08:15:39.406,f7:68:33:b1:9e:f1, 2015-01-01 01:01:41.985, -0.701, 0.628, 0.348, 0, 1.648, -2.502, 59.216, 43.775, -18.034, 15.220, -70.227, -145.340, 21.37, -0.7597, -0.51575, -0.24332, 0.31235,
 08:15:39.406,f7:68:33:b1:9e:f1, 2015-01-01 01:01:41.985, -0.706, 0.628, 0.348, 0, 1.648, -2.502, 59.216, 43.792, -18.034, 15.220, -70.227, -145.340, 21.37, -0.7597, -0.51575, -0.24332, 0.31235,
 08:15:39.406,f7:68:33:b1:9e:f1, 2015-01-01 01:01:41.985, -0.706, 0.628, 0.344, 0.122, 1.892, -2.441, 59.216, 43.808, -18.029, 15.220, -70.227, -145.340, 21.37, -0.7597, -0.51575, -0.24332, 0.31235,
 08:15:39.406,f7:68:33:b1:9e:f1, 2015-01-01 01:01:41.985, -0.706, 0.628, 0.344, 0.122, 1.892, -2.441, 59.222, 43.819, -18.029, 15.220, -70.227, -145.340, 21.37, -0.7597, -0.51575, -0.24332, 0.31235,
 08:15:39.406,f7:68:33:b1:9e:f1, 2015-01-01 01:01:41.985, -0.706, 0.628, 0.344, 0.122, 1.892, -2.441, 59.222, 43.835, -18.023, 15.220, -70.227, -145.340, 21.37, -0.7597, -0.51575, -0.24332, 0.31235,
 08:15:39.406,f7:68:33:b1:9e:f1, 2015-01-01 01:01:41.985, -0.705, 0.628, 0.344, 0.122, 1.892, -2.441, 59.227, 43.852, -18.023, 15.220, -70.227, -145.340, 21.37, -0.7597, -0.51575, -0.24332, 0.31235,
 08:15:39.406,f7:68:33:b1:9e:f1, 2015-01-01 01:01:41.985, -0.705, 0.629, 0.341, -0.183, 2.136, -2.93, 59.227, 43.874, -18.018, 15.220, -70.227, -145.340, 21.37, -0.7597, -0.51575, -0.24332, 0.31235,
 08:15:39.407,f7:68:33:b1:9e:f1, 2015-01-01 01:01:41.985, -0.705, 0.629, 0.341, -0.183, 2.136, -2.93, 59.227, 43.89, -18.018, 15.220, -70.227, -145.340, 21.37, -0.7597, -0.51575, -0.24332, 0.31235,
 08:15:39.418,d6:24:01:31:b7:6e, 2015-01-01 00:57:26.900, -0.599, -0.338, 0.768, -0.305, 0.671, -0.183, -23.752, 35.771, -101.277, 1.307, 9.820, -28.333, 23.21, 0.63733, 0.11002, 0.34259, -0.68134,
 08:15:39.435,f7:68:33:b1:9e:f1, 2015-01-01 01:01:41.985, -0.705, 0.629, 0.341, -0.183, 2.136, -2.93, 59.233, 43.907, -18.012, 15.220, -70.227, -145.340, 21.37, -0.7597, -0.51575, -0.24332, 0.31235,
 08:15:39.435,f7:68:33:b1:9e:f1, 2015-01-01 01:01:41.985, -0.705, 0.629, 0.341, -0.183, 2.136, -2.93, 59.233, 43.929, -18.012, 15.220, -70.227, -145.340, 21.37, -0.7597, -0.51575, -0.24332, 0.31235,
 08:15:39.435,f7:68:33:b1:9e:f1, 2015-01-01 01:01:41.985, -0.705, 0.629, 0.341, -0.061, 1.709, -2.441, 59.233, 43.945, -18.012, 15.220, -70.227, -145.340, 21.37, -0.7597, -0.51575, -0.24332, 0.31235,
 08:15:39.435,f7:68:33:b1:9e:f1, 2015-01-01 01:01:41.985, -0.705, 0.629, 0.341, -0.061, 1.709, -2.441, 59.238, 43.962, -18.007, 15.220, -70.227, -145.340, 21.37, -0.7597, -0.51575, -0.24332, 0.31235,
 08:15:39.435,f7:68:33:b1:9e:f1, 2015-01-01 01:01:41.985, -0.705, 0.629, 0.341, -0.061, 1.709, -2.441, 59.238, 43.973, -18.007, 15.220, -70.227, -145.340, 21.37, -0.7597, -0.51575, -0.24332, 0.31235,
 08:15:39.436,f7:68:33:b1:9e:f1, 2015-01-01 01:01:41.985, -0.705, 0.629, 0.341, -0.061, 1.709, -2.441, 59.238, 43.989, -18.007, 15.220, -70.227, -145.340, 21.37, -0.7597, -0.51575, -0.24332, 0.31235,
 08:15:39.436,f7:68:33:b1:9e:f1, 2015-01-01 01:01:41.985, -0.705, 0.631, 0.338, 0.122, 1.343, -2.136, 59.238, 44.006, -18.007, 15.220, -70.227, -145.340, 21.37, -0.7597, -0.51575, -0.24332, 0.31235,
 08:15:39.436,f7:68:33:b1:9e:f1, 2015-01-01 01:01:41.985, -0.705, 0.631, 0.338, 0.122, 1.343, -2.136, 59.244, 44.017, -18.007, 15.220, -70.227, -145.340, 21.37, -0.7597, -0.51575, -0.24332, 0.31235,
 08:15:39.494,f7:68:33:b1:9e:f1, 2015-01-01 01:01:42.340, -0.705, 0.631, 0.338, 0.122, 1.343, -2.136, 59.244, 44.028, -18.007, 15.220, -70.227, -145.340, 21.37, -0.7597, -0.51575, -0.24332, 0.31235,
 08:15:39.494,f7:68:33:b1:9e:f1, 2015-01-01 01:01:42.340, -0.702, 0.631, 0.338, 0.122, 1.343, -2.136, 59.244, 44.044, -18.007, 15.220, -70.227, -145.340, 21.37, -0.7597, -0.51575, -0.24332, 0.31235,
 08:15:39.494,f7:68:33:b1:9e:f1, 2015-01-01 01:01:42.340, -0.702, 0.631, 0.336, -0.122, 1.282, -3.174, 59.244, 44.061, -18.007, 15.220, -70.227, -145.340, 21.37, -0.7597, -0.51575, -0.24332, 0.31235,
 08:15:39.494,f7:68:33:b1:9e:f1, 2015-01-01 01:01:42.340, -0.702, 0.631, 0.336, -0.122, 1.282, -3.174, 59.244, 44.077, -18.012, 15.220, -70.227, -145.340, 21.37, -0.7597, -0.51575, -0.24332, 0.31235,
 08:15:39.494,f7:68:33:b1:9e:f1, 2015-01-01 01:01:42.340, -0.702, 0.631, 0.336, -0.122, 1.282, -3.174, 59.244, 44.094, -18.018, 15.220, -70.227, -145.340, 21.37, -0.7597, -0.51575, -0.24332, 0.31235,
 08:15:39.494,f7:68:33:b1:9e:f1, 2015-01-01 01:01:42.340, -0.705, 0.631, 0.336, -0.122, 1.282, -3.174, 59.238, 44.116, -18.018, 15.220, -70.227, -145.340, 21.37, -0.7597, -0.51575, -0.24332, 0.31235,
 08:15:39.494,f7:68:33:b1:9e:f1, 2015-01-01 01:01:42.340, -0.705, 0.628, 0.336, -0.488, 1.587, -4.089, 59.238, 44.138, -18.023, 15.220, -70.227, -145.340, 21.37, -0.7597, -0.51575, -0.24332, 0.31235,
 08:15:39.494,f7:68:33:b1:9e:f1, 2015-01-01 01:01:42.340, -0.705, 0.628, 0.336, -0.488, 1.587, -4.089, 59.233, 44.16, -18.029, 15.220, -70.227, -145.340, 21.37, -0.7597, -0.51575, -0.24332, 0.31235,
 08:15:39.509,d6:24:01:31:b7:6e, 2015-01-01 00:57:26.900, -0.604, -0.337, 0.757, -1.343, 0.793, 0.488, -23.862, 35.832, -101.074, 1.573, 10.167, -28.040, 23.21, 0.63733, 0.11002, 0.34259, -0.68134,
 08:15:39.526,f7:68:33:b1:9e:f1, 2015-01-01 01:01:42.340, -0.705, 0.628, 0.336, -0.488, 1.587, -4.089, 59.227, 44.182, -18.034, 15.220, -70.227, -145.340, 21.37, -0.7597, -0.51575, -0.24332, 0.31235,
 08:15:39.526,f7:68:33:b1:9e:f1, 2015-01-01 01:01:42.340, -0.706, 0.628, 0.336, -0.488, 1.587, -4.089, 59.222, 44.203, -18.04, 15.220, -70.227, -145.340, 21.37, -0.7597, -0.51575, -0.24332, 0.31235,
 08:15:39.526,f7:68:33:b1:9e:f1, 2015-01-01 01:01:42.340, -0.706, 0.626, 0.337, -0.732, 1.221, -3.662, 59.216, 44.22, -18.045, 15.220, -70.227, -145.340, 21.37, -0.7597, -0.51575, -0.24332, 0.31235,
 08:15:39.526,f7:68:33:b1:9e:f1, 2015-01-01 01:01:42.340, -0.706, 0.626, 0.337, -0.732, 1.221, -3.662, 59.211, 44.242, -18.051, 15.220, -70.227, -145.340, 21.37, -0.7597, -0.51575, -0.24332, 0.31235,
 08:15:39.526,f7:68:33:b1:9e:f1, 2015-01-01 01:01:42.340, -0.706, 0.626, 0.337, -0.732, 1.221, -3.662, 59.205, 44.258, -18.056, 15.220, -70.227, -145.340, 21.37, -0.7597, -0.51575, -0.24332, 0.31235,
 08:15:39.526,f7:68:33:b1:9e:f1, 2015-01-01 01:01:42.340, -0.707, 0.626, 0.337, -0.732, 1.221, -3.662, 59.2, 44.28, -18.062, 15.220, -70.227, -145.340, 21.37, -0.7597, -0.51575, -0.24332, 0.31235,
 08:15:39.526,f7:68:33:b1:9e:f1, 2015-01-01 01:01:42.340, -0.707, 0.63, 0.338, -0.793, 0.732, -3.967, 59.194, 44.297, -18.067, 15.220, -70.227, -145.340, 21.37, -0.7597, -0.51575, -0.24332, 0.31235,
 08:15:39.526,f7:68:33:b1:9e:f1, 2015-01-01 01:01:42.340, -0.707, 0.63, 0.338, -0.793, 0.732, -3.967, 59.183, 44.319, -18.078, 15.220, -70.227, -145.340, 21.37, -0.7597, -0.51575, -0.24332, 0.31235,
 08:15:39.554,f7:68:33:b1:9e:f1, 2015-01-01 01:01:42.340, -0.707, 0.63, 0.338, -0.793, 0.732, -3.967, 59.172, 44.335, -18.089, 15.220, -70.227, -145.340, 21.37, -0.7597, -0.51575, -0.24332, 0.31235,
 08:15:39.554,f7:68:33:b1:9e:f1, 2015-01-01 01:01:42.340, -0.708, 0.63, 0.338, -0.793, 0.732, -3.967, 59.167, 44.357, -18.1, 15.220, -70.227, -145.340, 21.37, -0.7597, -0.51575, -0.24332, 0.31235,
 08:15:39.554,f7:68:33:b1:9e:f1, 2015-01-01 01:01:42.340, -0.708, 0.625, 0.335, -0.488, 1.587, -4.944, 59.161, 44.379, -18.105, 15.220, -70.227, -145.340, 21.37, -0.7597, -0.51575, -0.24332, 0.31235,
 08:15:39.554,f7:68:33:b1:9e:f1, 2015-01-01 01:01:42.340, -0.708, 0.625, 0.335, -0.488, 1.587, -4.944, 59.156, 44.407, -18.116, 15.220, -70.227, -145.340, 21.37, -0.7597, -0.51575, -0.24332, 0.31235,
 08:15:39.554,f7:68:33:b1:9e:f1, 2015-01-01 01:01:42.340, -0.708, 0.625, 0.335, -0.488, 1.587, -4.944, 59.15, 44.434, -18.122, 15.220, -70.227, -145.340, 21.37, -0.7597, -0.51575, -0.24332, 0.31235,
 08:15:39.554,f7:68:33:b1:9e:f1, 2015-01-01 01:01:42.340, -0.708, 0.625, 0.335, -0.488, 1.587, -4.944, 59.145, 44.456, -18.127, 15.220, -70.227, -145.340, 21.37, -0.7597, -0.51575, -0.24332, 0.31235,
 08:15:39.554,f7:68:33:b1:9e:f1, 2015-01-01 01:01:42.340, -0.708, 0.624, 0.333, -1.038, -0.305, -2.869, 59.134, 44.467, -18.144, 15.220, -70.227, -145.340, 21.37, -0.7597, -0.51575, -0.24332, 0.31235,
 08:15:39.554,f7:68:33:b1:9e:f1, 2015-01-01 01:01:42.340, -0.708, 0.624, 0.333, -1.038, -0.305, -2.869, 59.123, 44.484, -18.155, 15.220, -70.227, -145.340, 21.37, -0.7597, -0.51575, -0.24332, 0.31235,
 08:15:39.615,f7:68:33:b1:9e:f1, 2015-01-01 01:01:42.340, -0.708, 0.624, 0.333, -1.038, -0.305, -2.869, 59.112, 44.495, -18.166, 15.220, -70.227, -145.340, 21.37, -0.7597, -0.51575, -0.24332, 0.31235,
 08:15:39.615,f7:68:33:b1:9e:f1, 2015-01-01 01:01:42.340, -0.707, 0.624, 0.333, -1.038, -0.305, -2.869, 59.101, 44.506, -18.177, 15.220, -70.227, -145.340, 21.37, -0.7597, -0.51575, -0.24332, 0.31235,
 08:15:39.615,f7:68:33:b1:9e:f1, 2015-01-01 01:01:42.340, -0.707, 0.626, 0.337, -1.77, -0.305, -2.93, 59.084, 44.517, -18.188, 15.220, -70.227, -145.340, 21.37, -0.7597, -0.51575, -0.24332, 0.31235,
 08:15:39.615,f7:68:33:b1:9e:f1, 2015-01-01 01:01:42.340, -0.707, 0.626, 0.337, -1.77, -0.305, -2.93, 59.068, 44.528, -18.204, 15.220, -70.227, -145.340, 21.37, -0.7597, -0.51575, -0.24332, 0.31235,
 08:15:39.615,f7:68:33:b1:9e:f1, 2015-01-01 01:01:42.340, -0.707, 0.626, 0.337, -1.77, -0.305, -2.93, 59.057, 44.539, -18.215, 15.220, -70.227, -145.340, 21.37, -0.7597, -0.51575, -0.24332, 0.31235,
 08:15:39.615,f7:68:33:b1:9e:f1, 2015-01-01 01:01:42.340, -0.712, 0.626, 0.337, -1.77, -0.305, -2.93, 59.041, 44.555, -18.226, 15.220, -70.227, -145.340, 21.37, -0.7597, -0.51575, -0.24332, 0.31235,
 08:15:39.615,f7:68:33:b1:9e:f1, 2015-01-01 01:01:42.340, -0.712, 0.625, 0.343, -1.709, -0.549, -3.113, 59.024, 44.566, -18.243, 15.220, -70.227, -145.340, 21.37, -0.7597, -0.51575, -0.24332, 0.31235,
 08:15:39.615,f7:68:33:b1:9e:f1, 2015-01-01 01:01:42.340, -0.712, 0.625, 0.343, -1.709, -0.549, -3.113, 59.008, 44.577, -18.259, 15.220, -70.227, -145.340, 21.37, -0.7597, -0.51575, -0.24332, 0.31235,
 08:15:39.628,d6:24:01:31:b7:6e, 2015-01-01 00:57:27.285, -0.605, -0.336, 0.75, -0.244, 0.305, -0.183, -23.961, 35.892, -100.827, 1.573, 10.167, -28.040, 23.21, 0.64258, 0.10629, 0.34439, -0.67609,
 08:15:39.645,f7:68:33:b1:9e:f1, 2015-01-01 01:01:42.340, -0.712, 0.625, 0.343, -1.709, -0.549, -3.113, 58.991, 44.588, -18.27, 15.220, -70.227, -145.340, 21.37, -0.7597, -0.51575, -0.24332, 0.31235,
 08:15:39.645,f7:68:33:b1:9e:f1, 2015-01-01 01:01:42.340, -0.712, 0.625, 0.343, -1.709, -0.549, -3.113, 58.975, 44.604, -18.287, 15.220, -70.227, -145.340, 21.37, -0.7597, -0.51575, -0.24332, 0.31235,
 08:15:39.645,f7:68:33:b1:9e:f1, 2015-01-01 01:01:42.340, -0.712, 0.624, 0.345, -1.038, 0, -3.723, 58.964, 44.621, -18.298, 15.220, -70.227, -145.340, 21.37, -0.7597, -0.51575, -0.24332, 0.31235,
 08:15:39.645,f7:68:33:b1:9e:f1, 2015-01-01 01:01:42.340, -0.712, 0.624, 0.345, -1.038, 0, -3.723, 58.953, 44.637, -18.314, 15.220, -70.227, -145.340, 21.37, -0.7597, -0.51575, -0.24332, 0.31235,
 08:15:39.645,f7:68:33:b1:9e:f1, 2015-01-01 01:01:42.340, -0.712, 0.624, 0.345, -1.038, 0, -3.723, 58.942, 44.648, -18.325, 15.220, -70.227, -145.340, 21.37, -0.7597, -0.51575, -0.24332, 0.31235,
 08:15:39.645,f7:68:33:b1:9e:f1, 2015-01-01 01:01:42.340, -0.712, 0.624, 0.345, -1.038, 0, -3.723, 58.931, 44.665, -18.342, 15.220, -70.227, -145.340, 21.37, -0.7597, -0.51575, -0.24332, 0.31235,
 08:15:39.645,f7:68:33:b1:9e:f1, 2015-01-01 01:01:42.340, -0.712, 0.619, 0.342, -0.61, -0.732, -3.052, 58.914, 44.676, -18.358, 15.220, -70.227, -145.340, 21.37, -0.7597, -0.51575, -0.24332, 0.31235,
 08:15:39.645,f7:68:33:b1:9e:f1, 2015-01-01 01:01:42.340, -0.712, 0.619, 0.342, -0.61, -0.732, -3.052, 58.903, 44.692, -18.369, 15.220, -70.227, -145.340, 21.37, -0.7597, -0.51575, -0.24332, 0.31235,
 08:15:39.675,f7:68:33:b1:9e:f1, 2015-01-01 01:01:42.340, -0.712, 0.619, 0.342, -0.61, -0.732, -3.052, 58.892, 44.703, -18.386, 16.287, -69.660, -145.300, 21.37, -0.7597, -0.51575, -0.24332, 0.31235,
 08:15:39.675,f7:68:33:b1:9e:f1, 2015-01-01 01:01:42.340, -0.712, 0.619, 0.342, -0.61, -0.732, -3.052, 58.881, 44.714, -18.402, 16.287, -69.660, -145.300, 21.37, -0.7597, -0.51575, -0.24332, 0.31235,
 08:15:39.675,f7:68:33:b1:9e:f1, 2015-01-01 01:01:42.340, -0.712, 0.619, 0.343, -0.671, -1.892, -1.831, 58.87, 44.714, -18.419, 16.287, -69.660, -145.300, 21.37, -0.7597, -0.51575, -0.24332, 0.31235,
 08:15:39.675,f7:68:33:b1:9e:f1, 2015-01-01 01:01:42.340, -0.712, 0.619, 0.343, -0.671, -1.892, -1.831, 58.854, 44.72, -18.441, 16.287, -69.660, -145.300, 21.37, -0.7597, -0.51575, -0.24332, 0.31235,
 08:15:39.675,f7:68:33:b1:9e:f1, 2015-01-01 01:01:42.340, -0.712, 0.619, 0.343, -0.671, -1.892, -1.831, 58.843, 44.725, -18.457, 16.287, -69.660, -145.300, 21.37, -0.7597, -0.51575, -0.24332, 0.31235,
 08:15:39.675,f7:68:33:b1:9e:f1, 2015-01-01 01:01:42.340, -0.722, 0.619, 0.343, -0.671, -1.892, -1.831, 58.826, 44.725, -18.479, 16.287, -69.660, -145.300, 21.37, -0.7597, -0.51575, -0.24332, 0.31235,
 08:15:39.675,f7:68:33:b1:9e:f1, 2015-01-01 01:01:42.340, -0.722, 0.613, 0.345, -0.549, -1.343, -2.441, 58.815, 44.736, -18.495, 16.287, -69.660, -145.300, 21.37, -0.7597, -0.51575, -0.24332, 0.31235,
 08:15:39.675,f7:68:33:b1:9e:f1, 2015-01-01 01:01:42.340, -0.722, 0.613, 0.345, -0.549, -1.343, -2.441, 58.799, 44.742, -18.512, 16.287, -69.660, -145.300, 21.37, -0.7597, -0.51575, -0.24332, 0.31235,
 08:15:39.719,d6:24:01:31:b7:6e, 2015-01-01 00:57:27.285, -0.595, -0.335, 0.755, 0.244, -0.549, -0.244, -23.956, 35.887, -100.618, 1.573, 10.167, -28.040, 23.21, 0.64258, 0.10629, 0.34439, -0.67609,
 08:15:39.735,f7:68:33:b1:9e:f1, 2015-01-01 01:01:42.340, -0.722, 0.613, 0.345, -0.549, -1.343, -2.441, 58.788, 44.747, -18.528, 16.287, -69.660, -145.300, 21.37, -0.7597, -0.51575, -0.24332, 0.31235,
 08:15:39.735,f7:68:33:b1:9e:f1, 2015-01-01 01:01:42.340, -0.723, 0.613, 0.345, -0.549, -1.343, -2.441, 58.777, 44.758, -18.545, 16.287, -69.660, -145.300, 21.37, -0.7597, -0.51575, -0.24332, 0.31235,
 08:15:39.735,f7:68:33:b1:9e:f1, 2015-01-01 01:01:42.340, -0.723, 0.611, 0.346, -0.61, -1.77, -1.404, 58.766, 44.758, -18.561, 16.287, -69.660, -145.300, 21.37, -0.7597, -0.51575, -0.24332, 0.31235,
 08:15:39.735,f7:68:33:b1:9e:f1, 2015-01-01 01:01:42.340, -0.723, 0.611, 0.346, -0.61, -1.77, -1.404, 58.749, 44.764, -18.578, 16.287, -69.660, -145.300, 21.37, -0.7597, -0.51575, -0.24332, 0.31235,
 08:15:39.735,f7:68:33:b1:9e:f1, 2015-01-01 01:01:42.340, -0.723, 0.611, 0.346, -0.61, -1.77, -1.404, 58.738, 44.764, -18.594, 16.287, -69.660, -145.300, 21.37, -0.7597, -0.51575, -0.24332, 0.31235,
 08:15:39.735,f7:68:33:b1:9e:f1, 2015-01-01 01:01:42.340, -0.72, 0.611, 0.346, -0.61, -1.77, -1.404, 58.727, 44.769, -18.611, 16.287, -69.660, -145.300, 21.37, -0.7597, -0.51575, -0.24332, 0.31235,
 08:15:39.735,f7:68:33:b1:9e:f1, 2015-01-01 01:01:42.340, -0.72, 0.611, 0.345, -0.671, -1.221, -1.343, 58.716, 44.769, -18.622, 16.287, -69.660, -145.300, 21.37, -0.7597, -0.51575, -0.24332, 0.31235,
 08:15:39.735,f7:68:33:b1:9e:f1, 2015-01-01 01:01:42.340, -0.72, 0.611, 0.345, -0.671, -1.221, -1.343, 58.705, 44.775, -18.638, 16.287, -69.660, -145.300, 21.37, -0.7597, -0.51575, -0.24332, 0.31235,
 08:15:39.765,f7:68:33:b1:9e:f1, 2015-01-01 01:01:42.340, -0.72, 0.611, 0.345, -0.671, -1.221, -1.343, 58.694, 44.78, -18.649, 16.287, -69.660, -145.300, 21.37, -0.75635, -0.51331, -0.2504, 0.31882,
 08:15:39.765,f7:68:33:b1:9e:f1, 2015-01-01 01:01:42.340, -0.719, 0.611, 0.345, -0.671, -1.221, -1.343, 58.683, 44.78, -18.66, 16.287, -69.660, -145.300, 21.37, -0.75635, -0.51331, -0.2504, 0.31882,
 08:15:39.765,f7:68:33:b1:9e:f1, 2015-01-01 01:01:42.340, -0.719, 0.611, 0.349, -1.16, -1.648, -0.366, 58.672, 44.78, -18.671, 16.287, -69.660, -145.300, 21.37, -0.75635, -0.51331, -0.2504, 0.31882,
 08:15:39.765,f7:68:33:b1:9e:f1, 2015-01-01 01:01:42.340, -0.719, 0.611, 0.349, -1.16, -1.648, -0.366, 58.656, 44.78, -18.688, 16.287, -69.660, -145.300, 21.37, -0.75635, -0.51331, -0.2504, 0.31882,
 08:15:39.765,f7:68:33:b1:9e:f1, 2015-01-01 01:01:42.340, -0.719, 0.611, 0.349, -1.16, -1.648, -0.366, 58.645, 44.78, -18.699, 16.287, -69.660, -145.300, 21.37, -0.75635, -0.51331, -0.2504, 0.31882,
 08:15:39.765,f7:68:33:b1:9e:f1, 2015-01-01 01:01:42.340, -0.722, 0.611, 0.349, -1.16, -1.648, -0.366, 58.634, 44.78, -18.71, 16.287, -69.660, -145.300, 21.37, -0.75635, -0.51331, -0.2504, 0.31882,
 08:15:39.765,f7:68:33:b1:9e:f1, 2015-01-01 01:01:42.340, -0.722, 0.613, 0.354, -0.854, -1.77, 0.366, 58.623, 44.775, -18.721, 16.287, -69.660, -145.300, 21.37, -0.75635, -0.51331, -0.2504, 0.31882,
 08:15:39.765,f7:68:33:b1:9e:f1, 2015-01-01 01:01:42.340, -0.722, 0.613, 0.354, -0.854, -1.77, 0.366, 58.612, 44.769, -18.732, 16.287, -69.660, -145.300, 21.37, -0.75635, -0.51331, -0.2504, 0.31882,
 08:15:39.796,f7:68:33:b1:9e:f1, 2015-01-01 01:01:42.340, -0.718, 0.613, 0.354, -0.854, -1.77, 0.366, 58.601, 44.764, -18.737, 16.287, -69.660, -145.300, 21.37, -0.75635, -0.51331, -0.2504, 0.31882,
 08:15:39.796,f7:68:33:b1:9e:f1, 2015-01-01 01:01:42.340, -0.718, 0.611, 0.353, -0.061, -2.38, 1.587, 58.596, 44.753, -18.748, 16.287, -69.660, -145.300, 21.37, -0.75635, -0.51331, -0.2504, 0.31882,
 08:15:39.796,f7:68:33:b1:9e:f1, 2015-01-01 01:01:42.340, -0.718, 0.611, 0.353, -0.061, -2.38, 1.587, 58.59, 44.742, -18.759, 16.287, -69.660, -145.300, 21.37, -0.75635, -0.51331, -0.2504, 0.31882,
 08:15:39.796,f7:68:33:b1:9e:f1, 2015-01-01 01:01:42.340, -0.718, 0.611, 0.353, -0.061, -2.38, 1.587, 58.585, 44.731, -18.77, 16.287, -69.660, -145.300, 21.37, -0.75635, -0.51331, -0.2504, 0.31882,
 08:15:39.796,f7:68:33:b1:9e:f1, 2015-01-01 01:01:42.340, -0.72, 0.611, 0.353, -0.061, -2.38, 1.587, 58.579, 44.72, -18.776, 16.287, -69.660, -145.300, 21.37, -0.75635, -0.51331, -0.2504, 0.31882,
 08:15:39.796,f7:68:33:b1:9e:f1, 2015-01-01 01:01:42.340, -0.72, 0.613, 0.349, -0.061, -0.671, 0.183, 58.579, 44.72, -18.781, 16.287, -69.660, -145.300, 21.37, -0.75635, -0.51331, -0.2504, 0.31882,
 08:15:39.796,f7:68:33:b1:9e:f1, 2015-01-01 01:01:42.340, -0.72, 0.613, 0.349, -0.061, -0.671, 0.183, 58.574, 44.72, -18.787, 16.287, -69.660, -145.300, 21.37, -0.75635, -0.51331, -0.2504, 0.31882,
 08:15:39.796,f7:68:33:b1:9e:f1, 2015-01-01 01:01:42.340, -0.72, 0.613, 0.349, -0.061, -0.671, 0.183, 58.574, 44.714, -18.792, 16.287, -69.660, -145.300, 21.37, -0.75635, -0.51331, -0.2504, 0.31882,
 08:15:39.839,d6:24:01:31:b7:6e, 2015-01-01 00:57:27.285, -0.594, -0.341, 0.762, 0.977, -0.366, -0.122, -23.906, 35.837, -100.492, 1.573, 10.167, -28.040, 23.21, 0.64258, 0.10629, 0.34439, -0.67609,
 08:15:39.854,f7:68:33:b1:9e:f1, 2015-01-01 01:01:42.700, -0.722, 0.613, 0.349, -0.061, -0.671, 0.183, 58.568, 44.714, -18.792, 16.287, -69.660, -145.300, 21.37, -0.75635, -0.51331, -0.2504, 0.31882,
 08:15:39.854,f7:68:33:b1:9e:f1, 2015-01-01 01:01:42.700, -0.722, 0.609, 0.348, -0.488, -0.732, 1.221, 58.568, 44.709, -18.792, 16.287, -69.660, -145.300, 21.37, -0.75635, -0.51331, -0.2504, 0.31882,
 08:15:39.854,f7:68:33:b1:9e:f1, 2015-01-01 01:01:42.700, -0.722, 0.609, 0.348, -0.488, -0.732, 1.221, 58.568, 44.703, -18.798, 16.287, -69.660, -145.300, 21.37, -0.75635, -0.51331, -0.2504, 0.31882,
 08:15:39.854,f7:68:33:b1:9e:f1, 2015-01-01 01:01:42.700, -0.722, 0.609, 0.348, -0.488, -0.732, 1.221, 58.563, 44.698, -18.798, 16.287, -69.660, -145.300, 21.37, -0.75635, -0.51331, -0.2504, 0.31882,
 08:15:39.854,f7:68:33:b1:9e:f1, 2015-01-01 01:01:42.700, -0.712, 0.609, 0.348, -0.488, -0.732, 1.221, 58.563, 44.692, -18.798, 16.287, -69.660, -145.300, 21.37, -0.75635, -0.51331, -0.2504, 0.31882,
 08:15:39.854,f7:68:33:b1:9e:f1, 2015-01-01 01:01:42.700, -0.712, 0.62, 0.352, -1.038, -0.977, 1.892, 58.557, 44.687, -18.798, 16.287, -69.660, -145.300, 21.37, -0.75635, -0.51331, -0.2504, 0.31882,
 08:15:39.855,f7:68:33:b1:9e:f1, 2015-01-01 01:01:42.700, -0.712, 0.62, 0.352, -1.038, -0.977, 1.892, 58.552, 44.676, -18.798, 16.287, -69.660, -145.300, 21.37, -0.75635, -0.51331, -0.2504, 0.31882,
 08:15:39.855,f7:68:33:b1:9e:f1, 2015-01-01 01:01:42.700, -0.712, 0.62, 0.352, -1.038, -0.977, 1.892, 58.546, 44.67, -18.798, 16.287, -69.660, -145.300, 21.37, -0.75635, -0.51331, -0.2504, 0.31882,
 08:15:39.885,f7:68:33:b1:9e:f1, 2015-01-01 01:01:42.700, -0.713, 0.62, 0.352, -1.038, -0.977, 1.892, 58.546, 44.659, -18.798, 16.287, -69.660, -145.300, 21.37, -0.75635, -0.51331, -0.2504, 0.31882,
 08:15:39.885,f7:68:33:b1:9e:f1, 2015-01-01 01:01:42.700, -0.713, 0.619, 0.352, -0.427, -0.549, 1.221, 58.541, 44.654, -18.798, 16.287, -69.660, -145.300, 21.37, -0.75635, -0.51331, -0.2504, 0.31882,
 08:15:39.885,f7:68:33:b1:9e:f1, 2015-01-01 01:01:42.700, -0.713, 0.619, 0.352, -0.427, -0.549, 1.221, 58.541, 44.648, -18.798, 16.287, -69.660, -145.300, 21.37, -0.75635, -0.51331, -0.2504, 0.31882,
 08:15:39.885,f7:68:33:b1:9e:f1, 2015-01-01 01:01:42.700, -0.713, 0.619, 0.352, -0.427, -0.549, 1.221, 58.541, 44.643, -18.798, 16.287, -69.660, -145.300, 21.37, -0.75635, -0.51331, -0.2504, 0.31882,
 08:15:39.885,f7:68:33:b1:9e:f1, 2015-01-01 01:01:42.700, -0.711, 0.619, 0.352, -0.427, -0.549, 1.221, 58.541, 44.637, -18.792, 16.287, -69.660, -145.300, 21.37, -0.75635, -0.51331, -0.2504, 0.31882,
 08:15:39.885,f7:68:33:b1:9e:f1, 2015-01-01 01:01:42.700, -0.711, 0.622, 0.351, 0, -0.793, 1.16, 58.541, 44.632, -18.798, 16.287, -69.660, -145.300, 21.37, -0.75635, -0.51331, -0.2504, 0.31882,
 08:15:39.885,f7:68:33:b1:9e:f1, 2015-01-01 01:01:42.700, -0.711, 0.622, 0.351, 0, -0.793, 1.16, 58.541, 44.626, -18.798, 16.287, -69.660, -145.300, 21.37, -0.75635, -0.51331, -0.2504, 0.31882,
 08:15:39.886,f7:68:33:b1:9e:f1, 2015-01-01 01:01:42.700, -0.711, 0.622, 0.351, 0, -0.793, 1.16, 58.535, 44.621, -18.798, 16.287, -69.660, -145.300, 21.37, -0.75635, -0.51331, -0.2504, 0.31882,
 08:15:39.899,d6:24:01:31:b7:6e, 2015-01-01 00:57:27.285, -0.603, -0.339, 0.763, -0.305, 0, 0.427, -23.851, 35.826, -100.272, 1.460, 10.467, -28.573, 23.21, 0.64258, 0.10629, 0.34439, -0.67609,
 08:15:39.916,f7:68:33:b1:9e:f1, 2015-01-01 01:01:42.700, -0.712, 0.622, 0.351, 0, -0.793, 1.16, 58.535, 44.615, -18.798, 16.287, -69.660, -145.300, 21.37, -0.75635, -0.51331, -0.2504, 0.31882,
 08:15:39.916,f7:68:33:b1:9e:f1, 2015-01-01 01:01:42.700, -0.712, 0.619, 0.347, 0.244, -0.671, 1.16, 58.541, 44.61, -18.803, 16.287, -69.660, -145.300, 21.37, -0.75635, -0.51331, -0.2504, 0.31882,
 08:15:39.916,f7:68:33:b1:9e:f1, 2015-01-01 01:01:42.700, -0.712, 0.619, 0.347, 0.244, -0.671, 1.16, 58.541, 44.604, -18.803, 16.287, -69.660, -145.300, 21.37, -0.75635, -0.51331, -0.2504, 0.31882,
 08:15:39.916,f7:68:33:b1:9e:f1, 2015-01-01 01:01:42.700, -0.712, 0.619, 0.347, 0.244, -0.671, 1.16, 58.541, 44.599, -18.803, 16.287, -69.660, -145.300, 21.37, -0.75635, -0.51331, -0.2504, 0.31882,
 08:15:39.916,f7:68:33:b1:9e:f1, 2015-01-01 01:01:42.700, -0.707, 0.619, 0.347, 0.244, -0.671, 1.16, 58.546, 44.599, -18.803, 16.287, -69.660, -145.300, 21.37, -0.75635, -0.51331, -0.2504, 0.31882,
 08:15:39.917,f7:68:33:b1:9e:f1, 2015-01-01 01:01:42.700, -0.707, 0.621, 0.345, -0.122, -0.305, 0.793, 58.546, 44.594, -18.803, 16.287, -69.660, -145.300, 21.37, -0.75635, -0.51331, -0.2504, 0.31882,
 08:15:39.917,f7:68:33:b1:9e:f1, 2015-01-01 01:01:42.700, -0.707, 0.621, 0.345, -0.122, -0.305, 0.793, 58.546, 44.588, -18.803, 16.287, -69.660, -145.300, 21.37, -0.75635, -0.51331, -0.2504, 0.31882,
 08:15:39.917,f7:68:33:b1:9e:f1, 2015-01-01 01:01:42.700, -0.707, 0.621, 0.345, -0.122, -0.305, 0.793, 58.546, 44.588, -18.803, 16.287, -69.660, -145.300, 21.37, -0.75635, -0.51331, -0.2504, 0.31882,
 08:15:39.974,f7:68:33:b1:9e:f1, 2015-01-01 01:01:42.700, -0.712, 0.621, 0.345, -0.122, -0.305, 0.793, 58.546, 44.583, -18.803, 16.287, -69.660, -145.300, 21.37, -0.75635, -0.51331, -0.2504, 0.31882,
 08:15:39.974,f7:68:33:b1:9e:f1, 2015-01-01 01:01:42.700, -0.712, 0.62, 0.347, -0.366, -0.732, 0.732, 58.546, 44.583, -18.803, 16.287, -69.660, -145.300, 21.37, -0.75635, -0.51331, -0.2504, 0.31882,
 08:15:39.974,f7:68:33:b1:9e:f1, 2015-01-01 01:01:42.700, -0.712, 0.62, 0.347, -0.366, -0.732, 0.732, 58.541, 44.577, -18.803, 16.287, -69.660, -145.300, 21.37, -0.75635, -0.51331, -0.2504, 0.31882,
 08:15:39.974,f7:68:33:b1:9e:f1, 2015-01-01 01:01:42.700, -0.712, 0.62, 0.347, -0.366, -0.732, 0.732, 58.541, 44.572, -18.809, 16.287, -69.660, -145.300, 21.37, -0.75635, -0.51331, -0.2504, 0.31882,
 08:15:39.974,f7:68:33:b1:9e:f1, 2015-01-01 01:01:42.700, -0.709, 0.62, 0.347, -0.366, -0.732, 0.732, 58.535, 44.572, -18.809, 16.287, -69.660, -145.300, 21.37, -0.75635, -0.51331, -0.2504, 0.31882,
 08:15:39.974,f7:68:33:b1:9e:f1, 2015-01-01 01:01:42.700, -0.709, 0.624, 0.35, 0, -1.282, 1.221, 58.535, 44.561, -18.814, 16.287, -69.660, -145.300, 21.37, -0.75635, -0.51331, -0.2504, 0.31882,
 08:15:39.975,f7:68:33:b1:9e:f1, 2015-01-01 01:01:42.700, -0.709, 0.624, 0.35, 0, -1.282, 1.221, 58.535, 44.555, -18.82, 16.287, -69.660, -145.300, 21.37, -0.75635, -0.51331, -0.2504, 0.31882,
 08:15:39.975,f7:68:33:b1:9e:f1, 2015-01-01 01:01:42.700, -0.709, 0.624, 0.35, 0, -1.282, 1.221, 58.53, 44.55, -18.82, 16.287, -69.660, -145.300, 21.37, -0.75635, -0.51331, -0.2504, 0.31882,
 08:15:40.005,f7:68:33:b1:9e:f1, 2015-01-01 01:01:42.700, -0.71, 0.624, 0.35, 0, -1.282, 1.221, 58.53, 44.539, -18.825, 16.287, -69.660, -145.300, 21.37, -0.75635, -0.51331, -0.2504, 0.31882,
 08:15:40.005,f7:68:33:b1:9e:f1, 2015-01-01 01:01:42.700, -0.71, 0.621, 0.345, 0.671, -0.549, -0.183, 58.53, 44.539, -18.831, 16.287, -69.660, -145.300, 21.37, -0.75635, -0.51331, -0.2504, 0.31882,
 08:15:40.005,f7:68:33:b1:9e:f1, 2015-01-01 01:01:42.700, -0.71, 0.621, 0.345, 0.671, -0.549, -0.183, 58.535, 44.539, -18.836, 16.287, -69.660, -145.300, 21.37, -0.75635, -0.51331, -0.2504, 0.31882,
 08:15:40.005,f7:68:33:b1:9e:f1, 2015-01-01 01:01:42.700, -0.71, 0.621, 0.345, 0.671, -0.549, -0.183, 58.535, 44.539, -18.842, 16.287, -69.660, -145.300, 21.37, -0.75635, -0.51331, -0.2504, 0.31882,
 08:15:40.005,f7:68:33:b1:9e:f1, 2015-01-01 01:01:42.700, -0.711, 0.621, 0.345, 0.671, -0.549, -0.183, 58.535, 44.544, -18.842, 16.287, -69.660, -145.300, 21.37, -0.75635, -0.51331, -0.2504, 0.31882,
 08:15:40.005,f7:68:33:b1:9e:f1, 2015-01-01 01:01:42.700, -0.711, 0.616, 0.341, 0.183, -0.732, -0.427, 58.535, 44.544, -18.853, 16.287, -69.660, -145.300, 21.37, -0.75635, -0.51331, -0.2504, 0.31882,
 08:15:40.006,f7:68:33:b1:9e:f1, 2015-01-01 01:01:42.700, -0.711, 0.616, 0.341, 0.183, -0.732, -0.427, 58.53, 44.544, -18.858, 16.287, -69.660, -145.300, 21.37, -0.75635, -0.51331, -0.2504, 0.31882,
 08:15:40.006,f7:68:33:b1:9e:f1, 2015-01-01 01:01:42.700, -0.711, 0.616, 0.341, 0.183, -0.732, -0.427, 58.53, 44.544, -18.864, 16.287, -69.660, -145.300, 21.37, -0.75635, -0.51331, -0.2504, 0.31882,
 08:15:40.020,d6:24:01:31:b7:6e, 2015-01-01 00:57:27.285, -0.6, -0.334, 0.756, -0.183, 0.61, 0.549, -23.835, 35.881, -100.014, 1.460, 10.467, -28.573, 23.21, 0.64709, 0.10461, 0.34427, -0.67206,
 08:15:40.066,f7:68:33:b1:9e:f1, 2015-01-01 01:01:42.700, -0.712, 0.616, 0.341, 0.183, -0.732, -0.427, 58.53, 44.544, -18.869, 16.287, -69.153, -145.047, 21.37, -0.75635, -0.51331, -0.2504, 0.31882,
 08:15:40.066,f7:68:33:b1:9e:f1, 2015-01-01 01:01:42.700, -0.712, 0.615, 0.342, -0.549, -1.038, -0.305, 58.519, 44.544, -18.88, 16.287, -69.153, -145.047, 21.37, -0.75635, -0.51331, -0.2504, 0.31882,
 08:15:40.066,f7:68:33:b1:9e:f1, 2015-01-01 01:01:42.700, -0.712, 0.615, 0.342, -0.549, -1.038, -0.305, 58.513, 44.544, -18.885, 16.287, -69.153, -145.047, 21.37, -0.75635, -0.51331, -0.2504, 0.31882,
 08:15:40.066,f7:68:33:b1:9e:f1, 2015-01-01 01:01:42.700, -0.712, 0.615, 0.342, -0.549, -1.038, -0.305, 58.508, 44.544, -18.891, 16.287, -69.153, -145.047, 21.37, -0.75635, -0.51331, -0.2504, 0.31882,
 08:15:40.066,f7:68:33:b1:9e:f1, 2015-01-01 01:01:42.700, -0.714, 0.615, 0.342, -0.549, -1.038, -0.305, 58.502, 44.544, -18.902, 16.287, -69.153, -145.047, 21.37, -0.75635, -0.51331, -0.2504, 0.31882,
 08:15:40.066,f7:68:33:b1:9e:f1, 2015-01-01 01:01:42.700, -0.714, 0.614, 0.344, -0.854, -0.977, -0.549, 58.491, 44.55, -18.907, 16.287, -69.153, -145.047, 21.37, -0.75635, -0.51331, -0.2504, 0.31882,
 08:15:40.066,f7:68:33:b1:9e:f1, 2015-01-01 01:01:42.700, -0.714, 0.614, 0.344, -0.854, -0.977, -0.549, 58.486, 44.55, -18.918, 16.287, -69.153, -145.047, 21.37, -0.75635, -0.51331, -0.2504, 0.31882,
 08:15:40.066,f7:68:33:b1:9e:f1, 2015-01-01 01:01:42.700, -0.714, 0.614, 0.344, -0.854, -0.977, -0.549, 58.475, 44.55, -18.924, 16.287, -69.153, -145.047, 21.37, -0.75635, -0.51331, -0.2504, 0.31882,
 08:15:40.096,f7:68:33:b1:9e:f1, 2015-01-01 01:01:42.700, -0.715, 0.614, 0.344, -0.854, -0.977, -0.549, 58.469, 44.55, -18.935, 16.287, -69.153, -145.047, 21.37, -0.75735, -0.51221, -0.24805, 0.31998,
 08:15:40.096,f7:68:33:b1:9e:f1, 2015-01-01 01:01:42.700, -0.715, 0.614, 0.346, -1.282, -0.671, -0.732, 58.458, 44.555, -18.94, 16.287, -69.153, -145.047, 21.37, -0.75735, -0.51221, -0.24805, 0.31998,
 08:15:40.096,f7:68:33:b1:9e:f1, 2015-01-01 01:01:42.700, -0.715, 0.614, 0.346, -1.282, -0.671, -0.732, 58.447, 44.555, -18.951, 16.287, -69.153, -145.047, 21.37, -0.75735, -0.51221, -0.24805, 0.31998,
 08:15:40.096,f7:68:33:b1:9e:f1, 2015-01-01 01:01:42.700, -0.715, 0.614, 0.346, -1.282, -0.671, -0.732, 58.436, 44.561, -18.957, 16.287, -69.153, -145.047, 21.37, -0.75735, -0.51221, -0.24805, 0.31998,
 08:15:40.096,f7:68:33:b1:9e:f1, 2015-01-01 01:01:42.700, -0.714, 0.614, 0.346, -1.282, -0.671, -0.732, 58.431, 44.561, -18.962, 16.287, -69.153, -145.047, 21.37, -0.75735, -0.51221, -0.24805, 0.31998,
 08:15:40.096,f7:68:33:b1:9e:f1, 2015-01-01 01:01:42.700, -0.714, 0.616, 0.35, -1.709, -0.122, -0.977, 58.42, 44.566, -18.968, 16.287, -69.153, -145.047, 21.37, -0.75735, -0.51221, -0.24805, 0.31998,
 08:15:40.097,f7:68:33:b1:9e:f1, 2015-01-01 01:01:42.700, -0.714, 0.616, 0.35, -1.709, -0.122, -0.977, 58.409, 44.572, -18.973, 16.287, -69.153, -145.047, 21.37, -0.75735, -0.51221, -0.24805, 0.31998,
 08:15:40.097,f7:68:33:b1:9e:f1, 2015-01-01 01:01:42.700, -0.714, 0.616, 0.35, -1.709, -0.122, -0.977, 58.398, 44.577, -18.979, 16.287, -69.153, -145.047, 21.37, -0.75735, -0.51221, -0.24805, 0.31998,
 08:15:40.109,d6:24:01:31:b7:6e, 2015-01-01 00:57:27.705, -0.6, -0.336, 0.753, 0.244, -0.183, -0.244, -23.835, 35.909, -99.904, 1.460, 10.467, -28.573, 23.21, 0.64709, 0.10461, 0.34427, -0.67206,
 08:15:40.125,f7:68:33:b1:9e:f1, 2015-01-01 01:01:42.700, -0.713, 0.616, 0.35, -1.709, -0.122, -0.977, 58.387, 44.583, -18.979, 16.287, -69.153, -145.047, 21.37, -0.75735, -0.51221, -0.24805, 0.31998,
 08:15:40.125,f7:68:33:b1:9e:f1, 2015-01-01 01:01:42.700, -0.713, 0.618, 0.352, -1.587, -0.977, -0.305, 58.376, 44.583, -18.99, 16.287, -69.153, -145.047, 21.37, -0.75735, -0.51221, -0.24805, 0.31998,
 08:15:40.125,f7:68:33:b1:9e:f1, 2015-01-01 01:01:42.700, -0.713, 0.618, 0.352, -1.587, -0.977, -0.305, 58.365, 44.588, -18.995, 16.287, -69.153, -145.047, 21.37, -0.75735, -0.51221, -0.24805, 0.31998,
 08:15:40.125,f7:68:33:b1:9e:f1, 2015-01-01 01:01:42.700, -0.713, 0.618, 0.352, -1.587, -0.977, -0.305, 58.354, 44.588, -19.006, 16.287, -69.153, -145.047, 21.37, -0.75735, -0.51221, -0.24805, 0.31998,
 08:15:40.125,f7:68:33:b1:9e:f1, 2015-01-01 01:01:42.700, -0.712, 0.618, 0.352, -1.587, -0.977, -0.305, 58.343, 44.588, -19.012, 16.287, -69.153, -145.047, 21.37, -0.75735, -0.51221, -0.24805, 0.31998,
 08:15:40.126,f7:68:33:b1:9e:f1, 2015-01-01 01:01:42.700, -0.712, 0.617, 0.353, -1.038, -1.038, -1.038, 58.332, 44.588, -19.023, 16.287, -69.153, -145.047, 21.37, -0.75735, -0.51221, -0.24805, 0.31998,
 08:15:40.126,f7:68:33:b1:9e:f1, 2015-01-01 01:01:42.700, -0.712, 0.617, 0.353, -1.038, -1.038, -1.038, 58.321, 44.594, -19.034, 16.287, -69.153, -145.047, 21.37, -0.75735, -0.51221, -0.24805, 0.31998,
 08:15:40.126,f7:68:33:b1:9e:f1, 2015-01-01 01:01:42.700, -0.712, 0.617, 0.353, -1.038, -1.038, -1.038, 58.31, 44.594, -19.045, 16.287, -69.153, -145.047, 21.37, -0.75735, -0.51221, -0.24805, 0.31998,
 08:15:40.186,f7:68:33:b1:9e:f1, 2015-01-01 01:01:43.025, -0.713, 0.617, 0.353, -1.038, -1.038, -1.038, 58.299, 44.599, -19.05, 16.287, -69.153, -145.047, 21.37, -0.75735, -0.51221, -0.24805, 0.31998,
 08:15:40.186,f7:68:33:b1:9e:f1, 2015-01-01 01:01:43.025, -0.713, 0.615, 0.352, -1.526, -0.732, -1.343, 58.288, 44.604, -19.061, 16.287, -69.153, -145.047, 21.37, -0.75735, -0.51221, -0.24805, 0.31998,
 08:15:40.186,f7:68:33:b1:9e:f1, 2015-01-01 01:01:43.025, -0.713, 0.615, 0.352, -1.526, -0.732, -1.343, 58.271, 44.61, -19.072, 16.287, -69.153, -145.047, 21.37, -0.75735, -0.51221, -0.24805, 0.31998,
 08:15:40.186,f7:68:33:b1:9e:f1, 2015-01-01 01:01:43.025, -0.713, 0.615, 0.352, -1.526, -0.732, -1.343, 58.26, 44.615, -19.083, 16.287, -69.153, -145.047, 21.37, -0.75735, -0.51221, -0.24805, 0.31998,
 08:15:40.186,f7:68:33:b1:9e:f1, 2015-01-01 01:01:43.025, -0.712, 0.615, 0.352, -1.526, -0.732, -1.343, 58.25, 44.621, -19.089, 16.287, -69.153, -145.047, 21.37, -0.75735, -0.51221, -0.24805, 0.31998,
 08:15:40.186,f7:68:33:b1:9e:f1, 2015-01-01 01:01:43.025, -0.712, 0.619, 0.355, -1.648, -1.221, -0.671, 58.233, 44.621, -19.1, 16.287, -69.153, -145.047, 21.37, -0.75735, -0.51221, -0.24805, 0.31998,
 08:15:40.186,f7:68:33:b1:9e:f1, 2015-01-01 01:01:43.025, -0.712, 0.619, 0.355, -1.648, -1.221, -0.671, 58.217, 44.621, -19.111, 16.287, -69.153, -145.047, 21.37, -0.75735, -0.51221, -0.24805, 0.31998,
 08:15:40.186,f7:68:33:b1:9e:f1, 2015-01-01 01:01:43.025, -0.712, 0.619, 0.355, -1.648, -1.221, -0.671, 58.206, 44.621, -19.122, 16.287, -69.153, -145.047, 21.37, -0.75735, -0.51221, -0.24805, 0.31998,
 08:15:40.216,f7:68:33:b1:9e:f1, 2015-01-01 01:01:43.025, -0.707, 0.619, 0.355, -1.648, -1.221, -0.671, 58.189, 44.621, -19.133, 16.287, -69.153, -145.047, 21.37, -0.75735, -0.51221, -0.24805, 0.31998,
 08:15:40.216,f7:68:33:b1:9e:f1, 2015-01-01 01:01:43.025, -0.707, 0.619, 0.352, -1.221, -1.16, -1.587, 58.178, 44.626, -19.144, 16.287, -69.153, -145.047, 21.37, -0.75735, -0.51221, -0.24805, 0.31998,
 08:15:40.216,f7:68:33:b1:9e:f1, 2015-01-01 01:01:43.025, -0.707, 0.619, 0.352, -1.221, -1.16, -1.587, 58.162, 44.632, -19.16, 16.287, -69.153, -145.047, 21.37, -0.75735, -0.51221, -0.24805, 0.31998,
 08:15:40.216,f7:68:33:b1:9e:f1, 2015-01-01 01:01:43.025, -0.707, 0.619, 0.352, -1.221, -1.16, -1.587, 58.151, 44.637, -19.171, 16.287, -69.153, -145.047, 21.37, -0.75735, -0.51221, -0.24805, 0.31998,
 08:15:40.216,f7:68:33:b1:9e:f1, 2015-01-01 01:01:43.025, -0.713, 0.619, 0.352, -1.221, -1.16, -1.587, 58.134, 44.643, -19.182, 16.287, -69.153, -145.047, 21.37, -0.75735, -0.51221, -0.24805, 0.31998,
 08:15:40.216,f7:68:33:b1:9e:f1, 2015-01-01 01:01:43.025, -0.713, 0.619, 0.354, -1.587, -1.282, -1.282, 58.123, 44.648, -19.199, 16.287, -69.153, -145.047, 21.37, -0.75735, -0.51221, -0.24805, 0.31998,
 08:15:40.216,f7:68:33:b1:9e:f1, 2015-01-01 01:01:43.025, -0.713, 0.619, 0.354, -1.587, -1.282, -1.282, 58.107, 44.648, -19.21, 16.287, -69.153, -145.047, 21.37, -0.75735, -0.51221, -0.24805, 0.31998,
 08:15:40.216,f7:68:33:b1:9e:f1, 2015-01-01 01:01:43.025, -0.713, 0.619, 0.354, -1.587, -1.282, -1.282, 58.09, 44.654, -19.221, 16.287, -69.153, -145.047, 21.37, -0.75735, -0.51221, -0.24805, 0.31998,
 08:15:40.227,d6:24:01:31:b7:6e, 2015-01-01 00:57:27.705, -0.604, -0.333, 0.761, 0.977, -1.038, 0.305, -23.747, 35.837, -99.745, 1.460, 10.467, -28.573, 23.21, 0.64709, 0.10461, 0.34427, -0.67206,
 08:15:40.246,f7:68:33:b1:9e:f1, 2015-01-01 01:01:43.025, -0.72, 0.619, 0.354, -1.587, -1.282, -1.282, 58.074, 44.654, -19.237, 16.287, -69.153, -145.047, 21.37, -0.75735, -0.51221, -0.24805, 0.31998,
 08:15:40.246,f7:68:33:b1:9e:f1, 2015-01-01 01:01:43.025, -0.72, 0.618, 0.362, -1.221, 0.488, -2.258, 58.068, 44.665, -19.243, 16.287, -69.153, -145.047, 21.37, -0.75735, -0.51221, -0.24805, 0.31998,
 08:15:40.246,f7:68:33:b1:9e:f1, 2015-01-01 01:01:43.025, -0.72, 0.618, 0.362, -1.221, 0.488, -2.258, 58.057, 44.676, -19.248, 16.287, -69.153, -145.047, 21.37, -0.75735, -0.51221, -0.24805, 0.31998,
 08:15:40.246,f7:68:33:b1:9e:f1, 2015-01-01 01:01:43.025, -0.72, 0.618, 0.362, -1.221, 0.488, -2.258, 58.052, 44.692, -19.254, 16.287, -69.153, -145.047, 21.37, -0.75735, -0.51221, -0.24805, 0.31998,
 08:15:40.246,f7:68:33:b1:9e:f1, 2015-01-01 01:01:43.025, -0.714, 0.618, 0.362, -1.221, 0.488, -2.258, 58.041, 44.703, -19.259, 16.287, -69.153, -145.047, 21.37, -0.75735, -0.51221, -0.24805, 0.31998,
 08:15:40.246,f7:68:33:b1:9e:f1, 2015-01-01 01:01:43.025, -0.714, 0.617, 0.359, 0.244, -0.061, -2.075, 58.041, 44.709, -19.265, 16.287, -69.153, -145.047, 21.37, -0.75735, -0.51221, -0.24805, 0.31998,
 08:15:40.246,f7:68:33:b1:9e:f1, 2015-01-01 01:01:43.025, -0.714, 0.617, 0.359, 0.244, -0.061, -2.075, 58.035, 44.72, -19.276, 16.287, -69.153, -145.047, 21.37, -0.75735, -0.51221, -0.24805, 0.31998,
 08:15:40.246,f7:68:33:b1:9e:f1, 2015-01-01 01:01:43.025, -0.708, 0.617, 0.359, 0.244, -0.061, -2.075, 58.03, 44.731, -19.281, 16.287, -69.153, -145.047, 21.37, -0.75735, -0.51221, -0.24805, 0.31998,
 08:15:40.304,f7:68:33:b1:9e:f1, 2015-01-01 01:01:43.025, -0.708, 0.611, 0.349, 0.61, 0.793, -2.991, 58.03, 44.747, -19.286, 16.287, -69.153, -145.047, 21.37, -0.75735, -0.51221, -0.24805, 0.31998,
 08:15:40.304,f7:68:33:b1:9e:f1, 2015-01-01 01:01:43.025, -0.708, 0.611, 0.349, 0.61, 0.793, -2.991, 58.03, 44.758, -19.292, 16.287, -69.153, -145.047, 21.37, -0.75735, -0.51221, -0.24805, 0.31998,
 08:15:40.304,f7:68:33:b1:9e:f1, 2015-01-01 01:01:43.025, -0.708, 0.611, 0.349, 0.61, 0.793, -2.991, 58.03, 44.775, -19.297, 16.287, -69.153, -145.047, 21.37, -0.75735, -0.51221, -0.24805, 0.31998,
 08:15:40.304,f7:68:33:b1:9e:f1, 2015-01-01 01:01:43.025, -0.72, 0.611, 0.349, 0.61, 0.793, -2.991, 58.03, 44.791, -19.308, 16.287, -69.153, -145.047, 21.37, -0.75735, -0.51221, -0.24805, 0.31998,
 08:15:40.304,f7:68:33:b1:9e:f1, 2015-01-01 01:01:43.025, -0.72, 0.604, 0.347, -3.113, 1.831, -2.625, 58.019, 44.808, -19.303, 16.287, -69.153, -145.047, 21.37, -0.75735, -0.51221, -0.24805, 0.31998,
 08:15:40.304,f7:68:33:b1:9e:f1, 2015-01-01 01:01:43.025, -0.72, 0.604, 0.347, -3.113, 1.831, -2.625, 58.008, 44.824, -19.303, 16.287, -69.153, -145.047, 21.37, -0.75735, -0.51221, -0.24805, 0.31998,
 08:15:40.304,f7:68:33:b1:9e:f1, 2015-01-01 01:01:43.025, -0.72, 0.604, 0.347, -3.113, 1.831, -2.625, 57.991, 44.841, -19.303, 16.287, -69.153, -145.047, 21.37, -0.75735, -0.51221, -0.24805, 0.31998,
 08:15:40.304,f7:68:33:b1:9e:f1, 2015-01-01 01:01:43.025, -0.721, 0.604, 0.347, -3.113, 1.831, -2.625, 57.98, 44.857, -19.297, 16.287, -69.153, -145.047, 21.37, -0.75735, -0.51221, -0.24805, 0.31998,
 08:15:40.318,d6:24:01:31:b7:6e, 2015-01-01 00:57:27.705, -0.598, -0.335, 0.767, 0.183, -1.709, -0.122, -23.599, 35.755, -99.481, 1.533, 10.273, -28.907, 23.21, 0.64709, 0.10461, 0.34427, -0.67206,
 08:15:40.335,f7:68:33:b1:9e:f1, 2015-01-01 01:01:43.025, -0.721, 0.612, 0.356, -1.77, 1.282, -2.441, 57.969, 44.874, -19.303, 16.287, -69.153, -145.047, 21.37, -0.75735, -0.51221, -0.24805, 0.31998,
 08:15:40.335,f7:68:33:b1:9e:f1, 2015-01-01 01:01:43.025, -0.721, 0.612, 0.356, -1.77, 1.282, -2.441, 57.964, 44.885, -19.303, 16.287, -69.153, -145.047, 21.37, -0.75735, -0.51221, -0.24805, 0.31998,
 08:15:40.335,f7:68:33:b1:9e:f1, 2015-01-01 01:01:43.025, -0.721, 0.612, 0.356, -1.77, 1.282, -2.441, 57.953, 44.901, -19.303, 16.287, -69.153, -145.047, 21.37, -0.75735, -0.51221, -0.24805, 0.31998,
 08:15:40.335,f7:68:33:b1:9e:f1, 2015-01-01 01:01:43.025, -0.716, 0.612, 0.356, -1.77, 1.282, -2.441, 57.947, 44.912, -19.303, 16.287, -69.153, -145.047, 21.37, -0.75735, -0.51221, -0.24805, 0.31998,
 08:15:40.335,f7:68:33:b1:9e:f1, 2015-01-01 01:01:43.025, -0.716, 0.611, 0.354, -0.183, 0.244, -2.441, 57.942, 44.929, -19.314, 16.287, -69.153, -145.047, 21.37, -0.75735, -0.51221, -0.24805, 0.31998,
 08:15:40.335,f7:68:33:b1:9e:f1, 2015-01-01 01:01:43.025, -0.716, 0.611, 0.354, -0.183, 0.244, -2.441, 57.936, 44.94, -19.319, 16.287, -69.153, -145.047, 21.37, -0.75735, -0.51221, -0.24805, 0.31998,
 08:15:40.335,f7:68:33:b1:9e:f1, 2015-01-01 01:01:43.025, -0.716, 0.611, 0.354, -0.183, 0.244, -2.441, 57.931, 44.951, -19.33, 16.287, -69.153, -145.047, 21.37, -0.75735, -0.51221, -0.24805, 0.31998,
 08:15:40.335,f7:68:33:b1:9e:f1, 2015-01-01 01:01:43.025, -0.72, 0.611, 0.354, -0.183, 0.244, -2.441, 57.925, 44.962, -19.336, 16.287, -69.153, -145.047, 21.37, -0.75735, -0.51221, -0.24805, 0.31998,
 08:15:40.365,f7:68:33:b1:9e:f1, 2015-01-01 01:01:43.025, -0.72, 0.609, 0.354, -0.793, 0.244, -1.892, 57.92, 44.973, -19.341, 16.007, -68.820, -146.047, 21.37, -0.75735, -0.51221, -0.24805, 0.31998,
 08:15:40.365,f7:68:33:b1:9e:f1, 2015-01-01 01:01:43.025, -0.72, 0.609, 0.354, -0.793, 0.244, -1.892, 57.914, 44.978, -19.347, 16.007, -68.820, -146.047, 21.37, -0.75735, -0.51221, -0.24805, 0.31998,
 08:15:40.365,f7:68:33:b1:9e:f1, 2015-01-01 01:01:43.025, -0.72, 0.609, 0.354, -0.793, 0.244, -1.892, 57.903, 44.989, -19.352, 16.007, -68.820, -146.047, 21.37, -0.75735, -0.51221, -0.24805, 0.31998,
 08:15:40.365,f7:68:33:b1:9e:f1, 2015-01-01 01:01:43.025, -0.72, 0.609, 0.354, -0.793, 0.244, -1.892, 57.898, 45, -19.358, 16.007, -68.820, -146.047, 21.37, -0.75735, -0.51221, -0.24805, 0.31998,
 08:15:40.365,f7:68:33:b1:9e:f1, 2015-01-01 01:01:43.025, -0.72, 0.612, 0.358, -0.977, 0.977, -2.075, 57.892, 45.011, -19.358, 16.007, -68.820, -146.047, 21.37, -0.75735, -0.51221, -0.24805, 0.31998,
 08:15:40.365,f7:68:33:b1:9e:f1, 2015-01-01 01:01:43.025, -0.72, 0.612, 0.358, -0.977, 0.977, -2.075, 57.887, 45.022, -19.363, 16.007, -68.820, -146.047, 21.37, -0.75735, -0.51221, -0.24805, 0.31998,
 08:15:40.365,f7:68:33:b1:9e:f1, 2015-01-01 01:01:43.025, -0.72, 0.612, 0.358, -0.977, 0.977, -2.075, 57.881, 45.033, -19.363, 16.007, -68.820, -146.047, 21.37, -0.75735, -0.51221, -0.24805, 0.31998,
 08:15:40.366,f7:68:33:b1:9e:f1, 2015-01-01 01:01:43.025, -0.721, 0.612, 0.358, -0.977, 0.977, -2.075, 57.876, 45.049, -19.363, 16.007, -68.820, -146.047, 21.37, -0.75735, -0.51221, -0.24805, 0.31998,
