time	DeviceName	AccX(g)	AccY(g)	AccZ(g)	AsX(°/s)	AsY(°/s)	AsZ(°/s)	AngleX(°)	AngleY(°)	AngleZ(°)	HX(uT)	HY(uT)	HZ(uT)	Q0()	Q1()	Q2()	Q3()	Temperature(°C)	Version()	Battery level(%)	Relative_Angle_deg	Slouch_Flag
2025-5-20 11:27:12.519	WT901BLE68(76B4B30218CB)	0.024	0.931	0.387	-14.771	40.833	23.193	64.85	1.76	-33.31	-21.833	-39.292	-49.042	0.78787	0.51819	-0.16354	-0.28958	24.4	13113	100	54.54381986330913	1
2025-5-20 11:27:12.520	WT901BLE68(76B4B30218CB)	0.03	0.931	0.387	-14.771	40.833	23.193	64.8	1.74	-33.06	-21.833	-39.292	-49.042	0.78787	0.51819	-0.16354	-0.28958	24.4	13113	100	54.54381986330913	1
2025-5-20 11:27:12.520	WT901BLE68(76B4B30218CB)	0.03	0.941	0.393	-16.235	39.734	20.264	64.73	1.73	-32.83	-21.833	-39.292	-49.042	0.78787	0.51819	-0.16354	-0.28958	24.4	13113	100	54.54381986330913	1
2025-5-20 11:27:12.520	WT901BLE68(76B4B30218CB)	0.03	0.941	0.393	-16.235	39.734	20.264	64.67	1.72	-32.61	-21.833	-39.292	-49.042	0.78787	0.51819	-0.16354	-0.28958	24.4	13113	100	54.54381986330913	1
2025-5-20 11:27:12.520	WT901BLE68(76B4B30218CB)	0.03	0.941	0.393	-16.235	39.734	20.264	64.6	1.7	-32.38	-21.833	-39.292	-49.042	0.78787	0.51819	-0.16354	-0.28958	24.4	13113	100	54.54381986330913	1
2025-5-20 11:27:12.520	WT901BLE68(76B4B30218CB)	0.033	0.941	0.393	-16.235	39.734	20.264	64.54	1.69	-32.15	-21.833	-39.292	-49.042	0.78787	0.51819	-0.16354	-0.28958	24.4	13113	100	54.54381986330913	1
2025-5-20 11:27:12.520	WT901BLE68(76B4B30218CB)	0.033	0.939	0.402	-17.7	41.077	22.766	64.47	1.68	-31.9	-21.833	-39.292	-49.042	0.78787	0.51819	-0.16354	-0.28958	24.4	13113	100	54.54381986330913	1
2025-5-20 11:27:12.520	WT901BLE68(76B4B30218CB)	0.033	0.939	0.402	-17.7	41.077	22.766	64.39	1.65	-31.67	-21.833	-39.292	-49.042	0.78787	0.51819	-0.16354	-0.28958	24.4	13113	100	54.54381986330913	1
2025-5-20 11:27:12.578	WT901BLE68(76B4B30218CB)	0.033	0.939	0.402	-17.7	41.077	22.766	64.32	1.64	-31.43	-21.833	-39.292	-49.042	0.78787	0.51819	-0.16354	-0.28958	24.4	13113	100	54.54381986330913	1
2025-5-20 11:27:12.579	WT901BLE68(76B4B30218CB)	0.011	0.939	0.402	-17.7	41.077	22.766	64.25	1.61	-31.19	-21.833	-39.292	-49.042	0.78787	0.51819	-0.16354	-0.28958	24.4	13113	100	54.54381986330913	1
2025-5-20 11:27:12.579	WT901BLE68(76B4B30218CB)	0.011	0.929	0.414	-19.836	41.626	24.17	64.17	1.59	-30.95	-21.833	-39.292	-49.042	0.78787	0.51819	-0.16354	-0.28958	24.4	13113	100	54.54381986330913	1
2025-5-20 11:27:12.579	WT901BLE68(76B4B30218CB)	0.011	0.929	0.414	-19.836	41.626	24.17	64.08	1.57	-30.71	-21.833	-39.292	-49.042	0.78787	0.51819	-0.16354	-0.28958	24.4	13113	100	54.54381986330913	1
2025-5-20 11:27:12.579	WT901BLE68(76B4B30218CB)	0.011	0.929	0.414	-19.836	41.626	24.17	64.0	1.54	-30.46	-21.833	-39.292	-49.042	0.78787	0.51819	-0.16354	-0.28958	24.4	13113	100	54.54381986330913	1
2025-5-20 11:27:12.579	WT901BLE68(76B4B30218CB)	-0.011	0.929	0.414	-19.836	41.626	24.17	63.92	1.52	-30.22	-21.833	-39.292	-49.042	0.78787	0.51819	-0.16354	-0.28958	24.4	13113	100	54.54381986330913	1
2025-5-20 11:27:12.579	WT901BLE68(76B4B30218CB)	-0.011	0.931	0.417	-19.653	41.565	22.949	63.84	1.51	-29.98	-21.833	-39.292	-49.042	0.78787	0.51819	-0.16354	-0.28958	24.4	13113	100	54.54381986330913	1
2025-5-20 11:27:12.579	WT901BLE68(76B4B30218CB)	-0.011	0.931	0.417	-19.653	41.565	22.949	63.76	1.49	-29.73	-21.833	-39.292	-49.042	0.78787	0.51819	-0.16354	-0.28958	24.4	13113	100	54.54381986330913	1
2025-5-20 11:27:12.639	WT901BLE68(76B4B30218CB)	-0.011	0.931	0.417	-19.653	41.565	22.949	63.68	1.47	-29.49	-21.833	-39.292	-49.042	0.78787	0.51819	-0.16354	-0.28958	24.4	13113	100	54.54381986330913	1
2025-5-20 11:27:12.639	WT901BLE68(76B4B30218CB)	-0.03	0.931	0.417	-19.653	41.565	22.949	63.59	1.46	-29.25	-21.833	-39.292	-49.042	0.78787	0.51819	-0.16354	-0.28958	24.4	13113	100	54.54381986330913	1
2025-5-20 11:27:12.640	WT901BLE68(76B4B30218CB)	-0.03	0.928	0.417	-17.09	38.635	17.334	63.52	1.46	-29.04	-21.833	-39.292	-49.042	0.78787	0.51819	-0.16354	-0.28958	24.4	13113	100	54.54381986330913	1
2025-5-20 11:27:12.640	WT901BLE68(76B4B30218CB)	-0.03	0.928	0.417	-17.09	38.635	17.334	63.46	1.46	-28.82	-21.833	-39.292	-49.042	0.78787	0.51819	-0.16354	-0.28958	24.4	13113	100	54.54381986330913	1
2025-5-20 11:27:12.640	WT901BLE68(76B4B30218CB)	-0.03	0.928	0.417	-17.09	38.635	17.334	63.39	1.47	-28.61	-21.833	-39.292	-49.042	0.78787	0.51819	-0.16354	-0.28958	24.4	13113	100	54.54381986330913	1
2025-5-20 11:27:12.640	WT901BLE68(76B4B30218CB)	-0.033	0.928	0.417	-17.09	38.635	17.334	63.31	1.47	-28.4	-18.358	-35.058	-52.358	0.78787	0.51819	-0.16354	-0.28958	24.4	13113	100	54.54381986330913	1
2025-5-20 11:27:12.640	WT901BLE68(76B4B30218CB)	-0.033	0.908	0.421	-7.385	34.119	15.076	63.29	1.48	-28.21	-18.358	-35.058	-52.358	0.78787	0.51819	-0.16354	-0.28958	24.4	13113	100	54.54381986330913	1
2025-5-20 11:27:12.640	WT901BLE68(76B4B30218CB)	-0.033	0.908	0.421	-7.385	34.119	15.076	63.27	1.48	-28.03	-18.358	-35.058	-52.358	0.78787	0.51819	-0.16354	-0.28958	24.4	13113	100	54.54381986330913	1
2025-5-20 11:27:12.640	WT901BLE68(76B4B30218CB)	-0.033	0.908	0.421	-7.385	34.119	15.076	63.25	1.49	-27.84	-18.358	-35.058	-52.358	0.78787	0.51819	-0.16354	-0.28958	24.4	13113	100	54.54381986330913	1
2025-5-20 11:27:12.640	WT901BLE68(76B4B30218CB)	-0.05	0.908	0.421	-7.385	34.119	15.076	63.23	1.49	-27.66	-18.358	-35.058	-52.358	0.78787	0.51819	-0.16354	-0.28958	24.4	13113	100	54.54381986330913	1
2025-5-20 11:27:12.640	WT901BLE68(76B4B30218CB)	-0.05	0.913	0.42	-12.329	33.691	11.23	63.18	1.52	-27.49	-18.358	-35.058	-52.358	0.78787	0.51819	-0.16354	-0.28958	24.4	13113	100	54.54381986330913	1
2025-5-20 11:27:12.640	WT901BLE68(76B4B30218CB)	-0.05	0.913	0.42	-12.329	33.691	11.23	63.13	1.54	-27.31	-18.358	-35.058	-52.358	0.78787	0.51819	-0.16354	-0.28958	24.4	13113	100	54.54381986330913	1
2025-5-20 11:27:12.640	WT901BLE68(76B4B30218CB)	-0.05	0.913	0.42	-12.329	33.691	11.23	63.08	1.57	-27.14	-18.358	-35.058	-52.358	0.78787	0.51819	-0.16354	-0.28958	24.4	13113	100	54.54381986330913	1
2025-5-20 11:27:12.640	WT901BLE68(76B4B30218CB)	-0.049	0.913	0.42	-12.329	33.691	11.23	63.04	1.59	-26.97	-18.358	-35.058	-52.358	0.78787	0.51819	-0.16354	-0.28958	24.4	13113	100	54.54381986330913	1
2025-5-20 11:27:12.640	WT901BLE68(76B4B30218CB)	-0.049	0.894	0.441	-10.559	31.86	13.733	63.0	1.6	-26.8	-18.358	-35.058	-52.358	0.78787	0.51819	-0.16354	-0.28958	24.4	13113	100	54.54381986330913	1
2025-5-20 11:27:12.640	WT901BLE68(76B4B30218CB)	-0.049	0.894	0.441	-10.559	31.86	13.733	62.96	1.61	-26.63	-18.358	-35.058	-52.358	0.78787	0.51819	-0.16354	-0.28958	24.4	13113	100	54.54381986330913	1
2025-5-20 11:27:12.699	WT901BLE68(76B4B30218CB)	-0.049	0.894	0.441	-10.559	31.86	13.733	62.92	1.62	-26.46	-18.358	-35.058	-52.358	0.78787	0.51819	-0.16354	-0.28958	24.4	13113	100	54.54381986330913	1
2025-5-20 11:27:12.699	WT901BLE68(76B4B30218CB)	-0.081	0.894	0.441	-10.559	31.86	13.733	62.89	1.63	-26.29	-18.358	-35.058	-52.358	0.78787	0.51819	-0.16354	-0.28958	24.4	13113	100	54.54381986330913	1
2025-5-20 11:27:12.699	WT901BLE68(76B4B30218CB)	-0.081	0.913	0.487	-11.536	30.64	12.329	62.84	1.64	-26.13	-18.358	-35.058	-52.358	0.78787	0.51819	-0.16354	-0.28958	24.4	13113	100	54.54381986330913	1
2025-5-20 11:27:12.700	WT901BLE68(76B4B30218CB)	-0.081	0.913	0.487	-11.536	30.64	12.329	62.79	1.66	-25.98	-18.358	-35.058	-52.358	0.78787	0.51819	-0.16354	-0.28958	24.4	13113	100	54.54381986330913	1
2025-5-20 11:27:12.700	WT901BLE68(76B4B30218CB)	-0.081	0.913	0.487	-11.536	30.64	12.329	62.75	1.68	-25.82	-18.358	-35.058	-52.358	0.78787	0.51819	-0.16354	-0.28958	24.4	13113	100	54.54381986330913	1
2025-5-20 11:27:12.700	WT901BLE68(76B4B30218CB)	-0.111	0.913	0.487	-11.536	30.64	12.329	62.7	1.69	-25.66	-18.358	-35.058	-52.358	0.78787	0.51819	-0.16354	-0.28958	24.4	13113	100	54.54381986330913	1
2025-5-20 11:27:12.700	WT901BLE68(76B4B30218CB)	-0.111	0.927	0.524	-15.137	27.954	8.728	62.64	1.71	-25.53	-18.358	-35.058	-52.358	0.78787	0.51819	-0.16354	-0.28958	24.4	13113	100	54.54381986330913	1
2025-5-20 11:27:12.700	WT901BLE68(76B4B30218CB)	-0.111	0.927	0.524	-15.137	27.954	8.728	62.57	1.74	-25.41	-18.358	-35.058	-52.358	0.78787	0.51819	-0.16354	-0.28958	24.4	13113	100	54.54381986330913	1
2025-5-20 11:27:12.729	WT901BLE68(76B4B30218CB)	-0.111	0.927	0.524	-15.137	27.954	8.728	62.51	1.77	-25.27	-18.358	-35.058	-52.358	0.78787	0.51819	-0.16354	-0.28958	24.4	13113	100	54.54381986330913	1
2025-5-20 11:27:12.729	WT901BLE68(76B4B30218CB)	-0.139	0.927	0.524	-15.137	27.954	8.728	62.44	1.8	-25.15	-18.358	-35.058	-52.358	0.78787	0.51819	-0.16354	-0.28958	24.4	13113	100	54.54381986330913	1
2025-5-20 11:27:12.729	WT901BLE68(76B4B30218CB)	-0.139	0.875	0.544	-19.653	24.475	4.028	62.35	1.84	-25.05	-18.358	-35.058	-52.358	0.78787	0.51819	-0.16354	-0.28958	24.4	13113	100	54.54381986330913	1
2025-5-20 11:27:12.729	WT901BLE68(76B4B30218CB)	-0.139	0.875	0.544	-19.653	24.475	4.028	62.26	1.88	-24.95	-18.358	-35.058	-52.358	0.78787	0.51819	-0.16354	-0.28958	24.4	13113	100	54.54381986330913	1
2025-5-20 11:27:12.729	WT901BLE68(76B4B30218CB)	-0.139	0.875	0.544	-19.653	24.475	4.028	62.17	1.93	-24.86	-18.358	-35.058	-52.358	0.78787	0.51819	-0.16354	-0.28958	24.4	13113	100	54.54381986330913	1
2025-5-20 11:27:12.729	WT901BLE68(76B4B30218CB)	-0.127	0.875	0.544	-19.653	24.475	4.028	62.08	1.97	-24.76	-18.358	-35.058	-52.358	0.78787	0.51819	-0.16354	-0.28958	24.4	13113	100	54.54381986330913	1
2025-5-20 11:27:12.729	WT901BLE68(76B4B30218CB)	-0.127	0.85	0.566	-22.034	21.057	6.47	61.97	1.99	-24.68	-18.358	-35.058	-52.358	0.78787	0.51819	-0.16354	-0.28958	24.4	13113	100	54.54381986330913	1
2025-5-20 11:27:12.729	WT901BLE68(76B4B30218CB)	-0.127	0.85	0.566	-22.034	21.057	6.47	61.87	2.02	-24.59	-18.358	-35.058	-52.358	0.78787	0.51819	-0.16354	-0.28958	24.4	13113	100	54.54381986330913	1
2025-5-20 11:27:12.759	WT901BLE68(76B4B30218CB)	-0.127	0.85	0.566	-22.034	21.057	6.47	61.77	2.05	-24.51	-18.358	-35.058	-52.358	0.78787	0.51819	-0.16354	-0.28958	24.4	13113	100	54.54381986330913	1
2025-5-20 11:27:12.759	WT901BLE68(76B4B30218CB)	-0.122	0.85	0.566	-22.034	21.057	6.47	61.66	2.08	-24.43	-18.358	-35.058	-52.358	0.78787	0.51819	-0.16354	-0.28958	24.4	13113	100	54.54381986330913	1
2025-5-20 11:27:12.759	WT901BLE68(76B4B30218CB)	-0.122	0.818	0.542	-22.217	19.836	9.277	61.56	2.09	-24.35	-18.358	-35.058	-52.358	0.78787	0.51819	-0.16354	-0.28958	24.4	13113	100	54.54381986330913	1
2025-5-20 11:27:12.759	WT901BLE68(76B4B30218CB)	-0.122	0.818	0.542	-22.217	19.836	9.277	61.45	2.1	-24.26	-18.358	-35.058	-52.358	0.78787	0.51819	-0.16354	-0.28958	24.4	13113	100	54.54381986330913	1
2025-5-20 11:27:12.759	WT901BLE68(76B4B30218CB)	-0.122	0.818	0.542	-22.217	19.836	9.277	61.34	2.12	-24.18	-18.358	-35.058	-52.358	0.78787	0.51819	-0.16354	-0.28958	24.4	13113	100	54.54381986330913	1
2025-5-20 11:27:12.759	WT901BLE68(76B4B30218CB)	-0.16	0.818	0.542	-22.217	19.836	9.277	61.23	2.13	-24.1	-18.358	-35.058	-52.358	0.78787	0.51819	-0.16354	-0.28958	24.4	13113	100	54.54381986330913	1
2025-5-20 11:27:12.759	WT901BLE68(76B4B30218CB)	-0.16	0.766	0.515	-18.494	16.785	5.859	61.14	2.16	-24.04	-18.358	-35.058	-52.358	0.78787	0.51819	-0.16354	-0.28958	24.4	13113	100	54.54381986330913	1
2025-5-20 11:27:12.759	WT901BLE68(76B4B30218CB)	-0.16	0.766	0.515	-18.494	16.785	5.859	61.05	2.18	-23.99	-18.358	-35.058	-52.358	0.78787	0.51819	-0.16354	-0.28958	24.4	13113	100	54.54381986330913	1
2025-5-20 11:27:12.818	WT901BLE68(76B4B30218CB)	-0.16	0.766	0.515	-18.494	16.785	5.859	60.96	2.21	-23.93	-18.358	-35.058	-52.358	0.78787	0.51819	-0.16354	-0.28958	24.4	13113	100	54.54381986330913	1
2025-5-20 11:27:12.818	WT901BLE68(76B4B30218CB)	-0.161	0.766	0.515	-18.494	16.785	5.859	60.87	2.23	-23.88	-18.358	-35.058	-52.358	0.78787	0.51819	-0.16354	-0.28958	24.4	13113	100	54.54381986330913	1
2025-5-20 11:27:12.818	WT901BLE68(76B4B30218CB)	-0.161	0.722	0.499	-11.047	11.353	4.272	60.81	2.25	-23.86	-18.358	-35.058	-52.358	0.78787	0.51819	-0.16354	-0.28958	24.4	13113	100	54.54381986330913	1
2025-5-20 11:27:12.818	WT901BLE68(76B4B30218CB)	-0.161	0.722	0.499	-11.047	11.353	4.272	60.76	2.27	-23.83	-18.358	-35.058	-52.358	0.78787	0.51819	-0.16354	-0.28958	24.4	13113	100	54.54381986330913	1
2025-5-20 11:27:12.818	WT901BLE68(76B4B30218CB)	-0.143	0.722	0.499	-11.047	11.353	4.272	60.7	2.3	-23.81	-18.358	-35.058	-52.358	0.78787	0.51819	-0.16354	-0.28958	24.4	13113	100	54.54381986330913	1
2025-5-20 11:27:12.818	WT901BLE68(76B4B30218CB)	-0.143	0.72	0.492	-4.089	7.568	3.052	60.68	2.31	-23.81	-18.358	-35.058	-52.358	0.78787	0.51819	-0.16354	-0.28958	24.4	13113	100	54.54381986330913	1
2025-5-20 11:27:12.818	WT901BLE68(76B4B30218CB)	-0.143	0.72	0.492	-4.089	7.568	3.052	60.66	2.33	-23.81	-18.358	-35.058	-52.358	0.78787	0.51819	-0.16354	-0.28958	24.4	13113	100	54.54381986330913	1
2025-5-20 11:27:12.818	WT901BLE68(76B4B30218CB)	-0.143	0.72	0.492	-4.089	7.568	3.052	60.64	2.35	-23.81	-18.358	-35.058	-52.358	0.84229	0.4975	-0.08676	-0.18814	24.4	13113	100	68.11400041529248	1
2025-5-20 11:27:12.854	WT901BLE68(76B4B30218CB)	-0.147	0.72	0.492	-4.089	7.568	3.052	60.62	2.37	-23.81	-18.358	-35.058	-52.358	0.84229	0.4975	-0.08676	-0.18814	24.4	13113	100	68.11400041529248	1
2025-5-20 11:27:12.854	WT901BLE68(76B4B30218CB)	-0.147	0.792	0.505	1.831	3.845	-0.183	60.62	2.4	-23.83	-18.358	-35.058	-52.358	0.84229	0.4975	-0.08676	-0.18814	24.4	13113	100	68.11400041529248	1
2025-5-20 11:27:12.854	WT901BLE68(76B4B30218CB)	-0.147	0.792	0.505	1.831	3.845	-0.183	60.63	2.42	-23.86	-18.358	-35.058	-52.358	0.84229	0.4975	-0.08676	-0.18814	24.4	13113	100	68.11400041529248	1
2025-5-20 11:27:12.854	WT901BLE68(76B4B30218CB)	-0.147	0.792	0.505	1.831	3.845	-0.183	60.63	2.44	-23.88	-18.358	-35.058	-52.358	0.84229	0.4975	-0.08676	-0.18814	24.4	13113	100	68.11400041529248	1
2025-5-20 11:27:12.854	WT901BLE68(76B4B30218CB)	-0.152	0.792	0.505	1.831	3.845	-0.183	60.64	2.47	-23.91	-18.358	-35.058	-52.358	0.84229	0.4975	-0.08676	-0.18814	24.4	13113	100	68.11400041529248	1
2025-5-20 11:27:12.854	WT901BLE68(76B4B30218CB)	-0.152	0.853	0.52	4.944	0.549	-3.113	60.66	2.5	-23.96	-18.358	-35.058	-52.358	0.84229	0.4975	-0.08676	-0.18814	24.4	13113	100	68.11400041529248	1
2025-5-20 11:27:12.854	WT901BLE68(76B4B30218CB)	-0.152	0.853	0.52	4.944	0.549	-3.113	60.68	2.53	-24.0	-18.358	-35.058	-52.358	0.84229	0.4975	-0.08676	-0.18814	24.4	13113	100	68.11400041529248	1
2025-5-20 11:27:12.854	WT901BLE68(76B4B30218CB)	-0.152	0.853	0.52	4.944	0.549	-3.113	60.7	2.56	-24.05	-18.358	-35.058	-52.358	0.84229	0.4975	-0.08676	-0.18814	24.4	13113	100	68.11400041529248	1
2025-5-20 11:27:12.908	WT901BLE68(76B4B30218CB)	-0.146	0.853	0.52	4.944	0.549	-3.113	60.72	2.59	-24.09	-18.358	-35.058	-52.358	0.84229	0.4975	-0.08676	-0.18814	24.4	13113	100	50.70138605690858	1
2025-5-20 11:27:12.908	WT901BLE68(76B4B30218CB)	-0.146	0.877	0.549	5.066	0.122	-0.061	60.74	2.6	-24.14	-18.358	-35.058	-52.358	0.84229	0.4975	-0.08676	-0.18814	24.4	13113	100	50.70138605690858	1
2025-5-20 11:27:12.908	WT901BLE68(76B4B30218CB)	-0.146	0.877	0.549	5.066	0.122	-0.061	60.76	2.62	-24.18	-18.358	-35.058	-52.358	0.84229	0.4975	-0.08676	-0.18814	24.4	13113	100	50.70138605690858	1
2025-5-20 11:27:12.908	WT901BLE68(76B4B30218CB)	-0.146	0.877	0.549	5.066	0.122	-0.061	60.78	2.64	-24.22	-18.358	-35.058	-52.358	0.84229	0.4975	-0.08676	-0.18814	24.4	13113	100	50.70138605690858	1
2025-5-20 11:27:12.908	WT901BLE68(76B4B30218CB)	-0.131	0.877	0.549	5.066	0.122	-0.061	60.8	2.65	-24.26	-18.358	-35.058	-52.358	0.84229	0.4975	-0.08676	-0.18814	24.4	13113	100	50.70138605690858	1
2025-5-20 11:27:12.908	WT901BLE68(76B4B30218CB)	-0.131	0.931	0.579	4.639	-0.122	0.305	60.82	2.66	-24.3	-18.358	-35.058	-52.358	0.84229	0.4975	-0.08676	-0.18814	24.4	13113	100	50.70138605690858	1
2025-5-20 11:27:12.908	WT901BLE68(76B4B30218CB)	-0.131	0.931	0.579	4.639	-0.122	0.305	60.84	2.68	-24.34	-18.358	-35.058	-52.358	0.84229	0.4975	-0.08676	-0.18814	24.4	13113	100	50.70138605690858	1
2025-5-20 11:27:12.909	WT901BLE68(76B4B30218CB)	-0.131	0.931	0.579	4.639	-0.122	0.305	60.85	2.69	-24.38	-18.358	-35.058	-52.358	0.84229	0.4975	-0.08676	-0.18814	24.4	13113	100	50.70138605690858	1
2025-5-20 11:27:12.937	WT901BLE68(76B4B30218CB)	-0.11	0.931	0.579	4.639	-0.122	0.305	60.87	2.71	-24.42	-18.358	-35.058	-52.358	0.84229	0.4975	-0.08676	-0.18814	24.4	13113	100	50.70138605690858	1
2025-5-20 11:27:12.937	WT901BLE68(76B4B30218CB)	-0.11	0.978	0.555	6.165	-3.967	-3.479	60.9	2.72	-24.49	-18.358	-35.058	-52.358	0.84229	0.4975	-0.08676	-0.18814	24.4	13113	100	50.70138605690858	1
2025-5-20 11:27:12.937	WT901BLE68(76B4B30218CB)	-0.11	0.978	0.555	6.165	-3.967	-3.479	60.92	2.75	-24.55	-18.358	-35.058	-52.358	0.84229	0.4975	-0.08676	-0.18814	24.4	13113	100	50.70138605690858	1
2025-5-20 11:27:12.937	WT901BLE68(76B4B30218CB)	-0.11	0.978	0.555	6.165	-3.967	-3.479	60.94	2.76	-24.62	-18.358	-35.058	-52.358	0.84229	0.4975	-0.08676	-0.18814	24.4	13113	100	50.70138605690858	1
2025-5-20 11:27:12.937	WT901BLE68(76B4B30218CB)	-0.091	0.978	0.555	6.165	-3.967	-3.479	60.97	2.79	-24.68	-18.358	-35.058	-52.358	0.84229	0.4975	-0.08676	-0.18814	24.4	13113	100	50.70138605690858	1
2025-5-20 11:27:12.937	WT901BLE68(76B4B30218CB)	-0.091	0.911	0.528	8.057	-5.31	-4.639	61.0	2.81	-24.75	-18.358	-35.058	-52.358	0.84229	0.4975	-0.08676	-0.18814	24.4	13113	100	50.70138605690858	1
2025-5-20 11:27:12.937	WT901BLE68(76B4B30218CB)	-0.091	0.911	0.528	8.057	-5.31	-4.639	61.03	2.82	-24.82	-18.358	-35.058	-52.358	0.84229	0.4975	-0.08676	-0.18814	24.4	13113	100	50.70138605690858	1
2025-5-20 11:27:12.937	WT901BLE68(76B4B30218CB)	-0.091	0.911	0.528	8.057	-5.31	-4.639	61.07	2.85	-24.9	-18.358	-35.058	-52.358	0.84229	0.4975	-0.08676	-0.18814	24.4	13113	100	50.70138605690858	1
2025-5-20 11:27:12.970	WT901BLE68(76B4B30218CB)	-0.092	0.911	0.528	8.057	-5.31	-4.639	61.1	2.86	-24.97	-18.358	-35.058	-52.358	0.84229	0.4975	-0.08676	-0.18814	24.4	13113	100	50.70138605690858	1
2025-5-20 11:27:12.970	WT901BLE68(76B4B30218CB)	-0.092	0.853	0.502	8.667	-6.104	-0.916	61.14	2.87	-25.03	-18.358	-35.058	-52.358	0.84229	0.4975	-0.08676	-0.18814	24.4	13113	100	50.70138605690858	1
2025-5-20 11:27:12.970	WT901BLE68(76B4B30218CB)	-0.092	0.853	0.502	8.667	-6.104	-0.916	61.18	2.87	-25.09	-18.358	-35.058	-52.358	0.84229	0.4975	-0.08676	-0.18814	24.4	13113	100	50.70138605690858	1
2025-5-20 11:27:12.970	WT901BLE68(76B4B30218CB)	-0.092	0.853	0.502	8.667	-6.104	-0.916	61.21	2.87	-25.15	-18.358	-35.058	-52.358	0.84229	0.4975	-0.08676	-0.18814	24.4	13113	100	50.70138605690858	1
2025-5-20 11:27:12.970	WT901BLE68(76B4B30218CB)	-0.103	0.853	0.502	8.667	-6.104	-0.916	61.25	2.87	-25.22	-18.358	-35.058	-52.358	0.84229	0.4975	-0.08676	-0.18814	24.4	13113	100	50.70138605690858	1
2025-5-20 11:27:12.970	WT901BLE68(76B4B30218CB)	-0.103	0.858	0.468	9.521	-6.897	-0.183	61.29	2.86	-25.28	-18.358	-35.058	-52.358	0.84229	0.4975	-0.08676	-0.18814	24.4	13113	100	50.70138605690858	1
2025-5-20 11:27:12.970	WT901BLE68(76B4B30218CB)	-0.103	0.858	0.468	9.521	-6.897	-0.183	61.33	2.86	-25.35	-18.358	-35.058	-52.358	0.84229	0.4975	-0.08676	-0.18814	24.4	13113	100	50.70138605690858	1
2025-5-20 11:27:12.970	WT901BLE68(76B4B30218CB)	-0.103	0.858	0.468	9.521	-6.897	-0.183	61.37	2.86	-25.41	-18.358	-35.058	-52.358	0.84229	0.4975	-0.08676	-0.18814	24.4	13113	100	50.70138605690858	1
2025-5-20 11:27:13.29	WT901BLE68(76B4B30218CB)	-0.096	0.858	0.468	9.521	-6.897	-0.183	61.41	2.85	-25.47	-18.358	-35.058	-52.358	0.84229	0.4975	-0.08676	-0.18814	24.4	13113	100	50.70138605690858	1
2025-5-20 11:27:13.29	WT901BLE68(76B4B30218CB)	-0.096	0.869	0.458	10.315	-7.385	0.305	61.46	2.84	-25.54	-18.358	-35.058	-52.358	0.84229	0.4975	-0.08676	-0.18814	24.4	13113	100	50.70138605690858	1
2025-5-20 11:27:13.29	WT901BLE68(76B4B30218CB)	-0.096	0.869	0.458	10.315	-7.385	0.305	61.51	2.83	-25.6	-18.358	-35.058	-52.358	0.84229	0.4975	-0.08676	-0.18814	24.4	13113	100	50.70138605690858	1
2025-5-20 11:27:13.29	WT901BLE68(76B4B30218CB)	-0.096	0.869	0.458	10.315	-7.385	0.305	61.55	2.82	-25.66	-18.358	-35.058	-52.358	0.84229	0.4975	-0.08676	-0.18814	24.4	13113	100	50.70138605690858	1
2025-5-20 11:27:13.29	WT901BLE68(76B4B30218CB)	-0.063	0.869	0.458	10.315	-7.385	0.305	61.59	2.82	-25.72	-18.358	-35.058	-52.358	0.84229	0.4975	-0.08676	-0.18814	24.4	13113	100	50.70138605690858	1
2025-5-20 11:27:13.29	WT901BLE68(76B4B30218CB)	-0.063	0.874	0.453	10.681	-7.874	1.831	61.64	2.8	-25.78	-18.358	-35.058	-52.358	0.84229	0.4975	-0.08676	-0.18814	24.4	13113	100	50.70138605690858	1
2025-5-20 11:27:13.29	WT901BLE68(76B4B30218CB)	-0.063	0.874	0.453	10.681	-7.874	1.831	61.69	2.79	-25.84	-18.358	-35.058	-52.358	0.84229	0.4975	-0.08676	-0.18814	24.4	13113	100	50.70138605690858	1
2025-5-20 11:27:13.29	WT901BLE68(76B4B30218CB)	-0.063	0.874	0.453	10.681	-7.874	1.831	61.74	2.77	-25.9	-18.358	-35.058	-52.358	0.84229	0.4975	-0.08676	-0.18814	24.4	13113	100	50.70138605690858	1
2025-5-20 11:27:13.57	WT901BLE68(76B4B30218CB)	-0.067	0.874	0.453	10.681	-7.874	1.831	61.79	2.75	-25.96	-15.575	-33.783	-53.417	0.84229	0.4975	-0.08676	-0.18814	24.4	13113	100	50.70138605690858	1
2025-5-20 11:27:13.57	WT901BLE68(76B4B30218CB)	-0.067	0.895	0.445	9.827	-8.484	1.648	61.84	2.73	-26.02	-15.575	-33.783	-53.417	0.84229	0.4975	-0.08676	-0.18814	24.4	13113	100	50.70138605690858	1
2025-5-20 11:27:13.57	WT901BLE68(76B4B30218CB)	-0.067	0.895	0.445	9.827	-8.484	1.648	61.88	2.71	-26.08	-15.575	-33.783	-53.417	0.84229	0.4975	-0.08676	-0.18814	24.4	13113	100	50.70138605690858	1
2025-5-20 11:27:13.57	WT901BLE68(76B4B30218CB)	-0.067	0.895	0.445	9.827	-8.484	1.648	61.92	2.69	-26.14	-15.575	-33.783	-53.417	0.84229	0.4975	-0.08676	-0.18814	24.4	13113	100	50.70138605690858	1
2025-5-20 11:27:13.57	WT901BLE68(76B4B30218CB)	-0.077	0.895	0.445	9.827	-8.484	1.648	61.97	2.68	-26.2	-15.575	-33.783	-53.417	0.84229	0.4975	-0.08676	-0.18814	24.4	13113	100	50.70138605690858	1
2025-5-20 11:27:13.58	WT901BLE68(76B4B30218CB)	-0.077	0.906	0.44	8.24	-7.385	0.732	62.01	2.66	-26.25	-15.575	-33.783	-53.417	0.84229	0.4975	-0.08676	-0.18814	24.4	13113	100	50.70138605690858	1
2025-5-20 11:27:13.58	WT901BLE68(76B4B30218CB)	-0.077	0.906	0.44	8.24	-7.385	0.732	62.05	2.65	-26.31	-15.575	-33.783	-53.417	0.84229	0.4975	-0.08676	-0.18814	24.4	13113	100	50.70138605690858	1
2025-5-20 11:27:13.58	WT901BLE68(76B4B30218CB)	-0.077	0.906	0.44	8.24	-7.385	0.732	62.08	2.64	-26.36	-15.575	-33.783	-53.417	0.84229	0.4975	-0.08676	-0.18814	24.4	13113	100	50.70138605690858	1
2025-5-20 11:27:13.87	WT901BLE68(76B4B30218CB)	-0.076	0.906	0.44	8.24	-7.385	0.732	62.12	2.63	-26.42	-15.575	-33.783	-53.417	0.84229	0.4975	-0.08676	-0.18814	24.4	13113	100	50.70138605690858	1
2025-5-20 11:27:13.87	WT901BLE68(76B4B30218CB)	-0.076	0.911	0.442	5.981	-5.249	-0.488	62.15	2.62	-26.46	-15.575	-33.783	-53.417	0.84229	0.4975	-0.08676	-0.18814	24.4	13113	100	50.70138605690858	1
2025-5-20 11:27:13.87	WT901BLE68(76B4B30218CB)	-0.076	0.911	0.442	5.981	-5.249	-0.488	62.18	2.62	-26.5	-15.575	-33.783	-53.417	0.84229	0.4975	-0.08676	-0.18814	24.4	13113	100	50.70138605690858	1
2025-5-20 11:27:13.87	WT901BLE68(76B4B30218CB)	-0.076	0.911	0.442	5.981	-5.249	-0.488	62.21	2.61	-26.55	-15.575	-33.783	-53.417	0.84229	0.4975	-0.08676	-0.18814	24.4	13113	100	50.70138605690858	1
2025-5-20 11:27:13.87	WT901BLE68(76B4B30218CB)	-0.065	0.911	0.442	5.981	-5.249	-0.488	62.24	2.61	-26.6	-15.575	-33.783	-53.417	0.84229	0.4975	-0.08676	-0.18814	24.4	13113	100	50.70138605690858	1
2025-5-20 11:27:13.87	WT901BLE68(76B4B30218CB)	-0.065	0.911	0.445	4.578	-4.7	-2.38	62.26	2.62	-26.64	-15.575	-33.783	-53.417	0.84229	0.4975	-0.08676	-0.18814	24.4	13113	100	50.70138605690858	1
2025-5-20 11:27:13.87	WT901BLE68(76B4B30218CB)	-0.065	0.911	0.445	4.578	-4.7	-2.38	62.28	2.63	-26.69	-15.575	-33.783	-53.417	0.84229	0.4975	-0.08676	-0.18814	24.4	13113	100	50.70138605690858	1
2025-5-20 11:27:13.87	WT901BLE68(76B4B30218CB)	-0.065	0.911	0.445	4.578	-4.7	-2.38	62.3	2.63	-26.74	-15.575	-33.783	-53.417	0.84229	0.4975	-0.08676	-0.18814	24.4	13113	100	50.70138605690858	1
2025-5-20 11:27:13.155	WT901BLE68(76B4B30218CB)	-0.049	0.911	0.445	4.578	-4.7	-2.38	62.33	2.64	-26.78	-15.575	-33.783	-53.417	0.84229	0.4975	-0.08676	-0.18814	24.4	13113	100	50.70138605690858	1
2025-5-20 11:27:13.155	WT901BLE68(76B4B30218CB)	-0.049	0.9	0.45	4.028	-3.174	-3.235	62.35	2.65	-26.82	-15.575	-33.783	-53.417	0.84229	0.4975	-0.08676	-0.18814	24.4	13113	100	50.70138605690858	1
2025-5-20 11:27:13.155	WT901BLE68(76B4B30218CB)	-0.049	0.9	0.45	4.028	-3.174	-3.235	62.36	2.66	-26.86	-15.575	-33.783	-53.417	0.84229	0.4975	-0.08676	-0.18814	24.4	13113	100	50.70138605690858	1
2025-5-20 11:27:13.155	WT901BLE68(76B4B30218CB)	-0.049	0.9	0.45	4.028	-3.174	-3.235	62.39	2.68	-26.9	-15.575	-33.783	-53.417	0.84229	0.4975	-0.08676	-0.18814	24.4	13113	100	50.70138605690858	1
2025-5-20 11:27:13.155	WT901BLE68(76B4B30218CB)	-0.044	0.9	0.45	4.028	-3.174	-3.235	62.41	2.69	-26.94	-15.575	-33.783	-53.417	0.84229	0.4975	-0.08676	-0.18814	24.4	13113	100	50.70138605690858	1
2025-5-20 11:27:13.155	WT901BLE68(76B4B30218CB)	-0.044	0.889	0.449	3.479	-1.404	-1.953	62.42	2.7	-26.96	-15.575	-33.783	-53.417	0.84229	0.4975	-0.08676	-0.18814	24.4	13113	100	50.70138605690858	1
2025-5-20 11:27:13.155	WT901BLE68(76B4B30218CB)	-0.044	0.889	0.449	3.479	-1.404	-1.953	62.44	2.71	-26.99	-15.575	-33.783	-53.417	0.84229	0.4975	-0.08676	-0.18814	24.4	13113	100	50.70138605690858	1
2025-5-20 11:27:13.155	WT901BLE68(76B4B30218CB)	-0.044	0.889	0.449	3.479	-1.404	-1.953	62.46	2.72	-27.02	-15.575	-33.783	-53.417	0.84229	0.4975	-0.08676	-0.18814	24.4	13113	100	50.70138605690858	1
2025-5-20 11:27:13.177	WT901BLE68(76B4B30218CB)	-0.052	0.889	0.449	3.479	-1.404	-1.953	62.47	2.73	-27.04	-15.575	-33.783	-53.417	0.84229	0.4975	-0.08676	-0.18814	24.4	13113	100	50.70138605690858	1
2025-5-20 11:27:13.177	WT901BLE68(76B4B30218CB)	-0.052	0.9	0.448	2.075	-1.16	-1.038	62.48	2.74	-27.06	-15.575	-33.783	-53.417	0.84229	0.4975	-0.08676	-0.18814	24.4	13113	100	50.70138605690858	1
2025-5-20 11:27:13.177	WT901BLE68(76B4B30218CB)	-0.052	0.9	0.448	2.075	-1.16	-1.038	62.5	2.74	-27.09	-15.575	-33.783	-53.417	0.84229	0.4975	-0.08676	-0.18814	24.4	13113	100	50.70138605690858	1
2025-5-20 11:27:13.177	WT901BLE68(76B4B30218CB)	-0.052	0.9	0.448	2.075	-1.16	-1.038	62.51	2.75	-27.11	-15.575	-33.783	-53.417	0.84229	0.4975	-0.08676	-0.18814	24.4	13113	100	50.70138605690858	1
2025-5-20 11:27:13.177	WT901BLE68(76B4B30218CB)	-0.044	0.9	0.448	2.075	-1.16	-1.038	62.52	2.75	-27.14	-15.575	-33.783	-53.417	0.84229	0.4975	-0.08676	-0.18814	24.4	13113	100	50.70138605690858	1
2025-5-20 11:27:13.177	WT901BLE68(76B4B30218CB)	-0.044	0.913	0.45	0.732	-1.404	-0.916	62.52	2.76	-27.16	-15.575	-33.783	-53.417	0.84229	0.4975	-0.08676	-0.18814	24.4	13113	100	50.70138605690858	1
2025-5-20 11:27:13.177	WT901BLE68(76B4B30218CB)	-0.044	0.913	0.45	0.732	-1.404	-0.916	62.53	2.76	-27.19	-15.575	-33.783	-53.417	0.84229	0.4975	-0.08676	-0.18814	24.4	13113	100	50.70138605690858	1
2025-5-20 11:27:13.177	WT901BLE68(76B4B30218CB)	-0.044	0.913	0.45	0.732	-1.404	-0.916	62.53	2.76	-27.21	-15.575	-33.783	-53.417	0.84229	0.4975	-0.08676	-0.18814	24.4	13113	100	50.70138605690858	1
2025-5-20 11:27:13.206	WT901BLE68(76B4B30218CB)	-0.046	0.913	0.45	0.732	-1.404	-0.916	62.54	2.76	-27.23	-15.575	-33.783	-53.417	0.84229	0.4975	-0.08676	-0.18814	24.4	13113	100	50.70138605690858	1
2025-5-20 11:27:13.206	WT901BLE68(76B4B30218CB)	-0.046	0.913	0.447	-0.061	-1.709	-0.183	62.54	2.76	-27.25	-15.575	-33.783	-53.417	0.84229	0.4975	-0.08676	-0.18814	24.4	13113	100	50.70138605690858	1
2025-5-20 11:27:13.206	WT901BLE68(76B4B30218CB)	-0.046	0.913	0.447	-0.061	-1.709	-0.183	62.54	2.76	-27.27	-15.575	-33.783	-53.417	0.84229	0.4975	-0.08676	-0.18814	24.4	13113	100	50.70138605690858	1
2025-5-20 11:27:13.206	WT901BLE68(76B4B30218CB)	-0.046	0.913	0.447	-0.061	-1.709	-0.183	62.55	2.76	-27.3	-15.575	-33.783	-53.417	0.84229	0.4975	-0.08676	-0.18814	24.4	13113	100	50.70138605690858	1
2025-5-20 11:27:13.206	WT901BLE68(76B4B30218CB)	-0.058	0.913	0.447	-0.061	-1.709	-0.183	62.55	2.76	-27.32	-15.575	-33.783	-53.417	0.8273	0.50912	-0.10251	-0.21393	24.4	13113	100	47.80732076611984	1
2025-5-20 11:27:13.206	WT901BLE68(76B4B30218CB)	-0.058	0.905	0.445	-0.549	-2.258	0.488	62.55	2.76	-27.34	-15.575	-33.783	-53.417	0.8273	0.50912	-0.10251	-0.21393	24.4	13113	100	47.80732076611984	1
2025-5-20 11:27:13.206	WT901BLE68(76B4B30218CB)	-0.058	0.905	0.445	-0.549	-2.258	0.488	62.54	2.75	-27.36	-15.575	-33.783	-53.417	0.8273	0.50912	-0.10251	-0.21393	24.4	13113	100	47.80732076611984	1
2025-5-20 11:27:13.206	WT901BLE68(76B4B30218CB)	-0.058	0.905	0.445	-0.549	-2.258	0.488	62.54	2.75	-27.38	-15.575	-33.783	-53.417	0.8273	0.50912	-0.10251	-0.21393	24.4	13113	100	47.80732076611984	1
2025-5-20 11:27:13.268	WT901BLE68(76B4B30218CB)	-0.067	0.905	0.445	-0.549	-2.258	0.488	62.54	2.74	-27.4	-15.575	-33.783	-53.417	0.8273	0.50912	-0.10251	-0.21393	24.4	13113	100	47.80732076611984	1
2025-5-20 11:27:13.268	WT901BLE68(76B4B30218CB)	-0.067	0.903	0.447	-1.892	-2.197	0.732	62.53	2.74	-27.42	-15.575	-33.783	-53.417	0.8273	0.50912	-0.10251	-0.21393	24.4	13113	100	47.80732076611984	1
2025-5-20 11:27:13.268	WT901BLE68(76B4B30218CB)	-0.067	0.903	0.447	-1.892	-2.197	0.732	62.52	2.72	-27.44	-15.575	-33.783	-53.417	0.8273	0.50912	-0.10251	-0.21393	24.4	13113	100	47.80732076611984	1
2025-5-20 11:27:13.268	WT901BLE68(76B4B30218CB)	-0.067	0.903	0.447	-1.892	-2.197	0.732	62.52	2.72	-27.46	-15.575	-33.783	-53.417	0.8273	0.50912	-0.10251	-0.21393	24.4	13113	100	47.80732076611984	1
2025-5-20 11:27:13.268	WT901BLE68(76B4B30218CB)	-0.069	0.903	0.447	-1.892	-2.197	0.732	62.51	2.71	-27.48	-15.575	-33.783	-53.417	0.8273	0.50912	-0.10251	-0.21393	24.4	13113	100	47.80732076611984	1
2025-5-20 11:27:13.268	WT901BLE68(76B4B30218CB)	-0.069	0.904	0.444	-2.747	-2.197	0.549	62.5	2.71	-27.5	-15.575	-33.783	-53.417	0.8273	0.50912	-0.10251	-0.21393	24.4	13113	100	53.06395176372751	1
2025-5-20 11:27:13.268	WT901BLE68(76B4B30218CB)	-0.069	0.904	0.444	-2.747	-2.197	0.549	62.49	2.7	-27.52	-15.575	-33.783	-53.417	0.8273	0.50912	-0.10251	-0.21393	24.4	13113	100	53.06395176372751	1
2025-5-20 11:27:13.268	WT901BLE68(76B4B30218CB)	-0.069	0.904	0.444	-2.747	-2.197	0.549	62.48	2.7	-27.54	-15.575	-33.783	-53.417	0.8273	0.50912	-0.10251	-0.21393	24.4	13113	100	53.06395176372751	1
2025-5-20 11:27:13.298	WT901BLE68(76B4B30218CB)	-0.077	0.904	0.444	-2.747	-2.197	0.549	62.47	2.69	-27.56	-15.575	-33.783	-53.417	0.8273	0.50912	-0.10251	-0.21393	24.4	13113	100	53.06395176372751	1
2025-5-20 11:27:13.298	WT901BLE68(76B4B30218CB)	-0.077	0.897	0.438	-3.357	-3.723	-0.244	62.45	2.69	-27.59	-15.575	-33.783	-53.417	0.8273	0.50912	-0.10251	-0.21393	24.4	13113	100	53.06395176372751	1
2025-5-20 11:27:13.298	WT901BLE68(76B4B30218CB)	-0.077	0.897	0.438	-3.357	-3.723	-0.244	62.44	2.69	-27.62	-15.575	-33.783	-53.417	0.8273	0.50912	-0.10251	-0.21393	24.4	13113	100	53.06395176372751	1
2025-5-20 11:27:13.298	WT901BLE68(76B4B30218CB)	-0.077	0.897	0.438	-3.357	-3.723	-0.244	62.42	2.68	-27.65	-15.575	-33.783	-53.417	0.8273	0.50912	-0.10251	-0.21393	24.4	13113	100	53.06395176372751	1
2025-5-20 11:27:13.298	WT901BLE68(76B4B30218CB)	-0.065	0.897	0.438	-3.357	-3.723	-0.244	62.41	2.68	-27.68	-15.575	-33.783	-53.417	0.8273	0.50912	-0.10251	-0.21393	24.4	13113	100	53.06395176372751	1
2025-5-20 11:27:13.298	WT901BLE68(76B4B30218CB)	-0.065	0.897	0.434	-3.296	-4.15	-0.61	62.4	2.67	-27.71	-15.575	-33.783	-53.417	0.8273	0.50912	-0.10251	-0.21393	24.4	13113	100	53.06395176372751	1
2025-5-20 11:27:13.298	WT901BLE68(76B4B30218CB)	-0.065	0.897	0.434	-3.296	-4.15	-0.61	62.38	2.67	-27.75	-15.575	-33.783	-53.417	0.8273	0.50912	-0.10251	-0.21393	24.4	13113	100	53.06395176372751	1
2025-5-20 11:27:13.298	WT901BLE68(76B4B30218CB)	-0.056	0.897	0.434	-3.296	-4.15	-0.61	62.37	2.66	-27.77	-15.575	-33.783	-53.417	0.8273	0.50912	-0.10251	-0.21393	24.4	13113	100	53.06395176372751	1
2025-5-20 11:27:13.327	WT901BLE68(76B4B30218CB)	-0.056	0.913	0.437	-3.54	-3.906	-0.427	62.35	2.66	-27.81	-15.575	-33.783	-53.417	0.8273	0.50912	-0.10251	-0.21393	24.4	13113	100	53.06395176372751	1
2025-5-20 11:27:13.327	WT901BLE68(76B4B30218CB)	-0.056	0.913	0.437	-3.54	-3.906	-0.427	62.34	2.65	-27.84	-15.575	-33.783	-53.417	0.8273	0.50912	-0.10251	-0.21393	24.4	13113	100	53.06395176372751	1
2025-5-20 11:27:13.327	WT901BLE68(76B4B30218CB)	-0.056	0.913	0.437	-3.54	-3.906	-0.427	62.33	2.65	-27.87	-15.575	-33.783	-53.417	0.8273	0.50912	-0.10251	-0.21393	24.4	13113	100	53.06395176372751	1
2025-5-20 11:27:13.327	WT901BLE68(76B4B30218CB)	-0.054	0.913	0.437	-3.54	-3.906	-0.427	62.31	2.65	-27.89	-15.575	-33.783	-53.417	0.8273	0.50912	-0.10251	-0.21393	24.4	13113	100	53.06395176372751	1
2025-5-20 11:27:13.327	WT901BLE68(76B4B30218CB)	-0.054	0.915	0.436	-4.211	-3.174	-0.793	62.29	2.64	-27.92	-15.575	-33.783	-53.417	0.8273	0.50912	-0.10251	-0.21393	24.4	13113	100	53.06395176372751	1
2025-5-20 11:27:13.327	WT901BLE68(76B4B30218CB)	-0.054	0.915	0.436	-4.211	-3.174	-0.793	62.28	2.64	-27.94	-15.575	-33.783	-53.417	0.8273	0.50912	-0.10251	-0.21393	24.4	13113	100	53.06395176372751	1
2025-5-20 11:27:13.327	WT901BLE68(76B4B30218CB)	-0.054	0.915	0.436	-4.211	-3.174	-0.793	62.26	2.64	-27.97	-15.575	-33.783	-53.417	0.8273	0.50912	-0.10251	-0.21393	24.4	13113	100	53.06395176372751	1
2025-5-20 11:27:13.327	WT901BLE68(76B4B30218CB)	-0.066	0.915	0.436	-4.211	-3.174	-0.793	62.24	2.64	-28.0	-15.575	-33.783	-53.417	0.8273	0.50912	-0.10251	-0.21393	24.4	13113	100	53.06395176372751	1
2025-5-20 11:27:13.388	WT901BLE68(76B4B30218CB)	-0.066	0.912	0.442	-5.737	-3.052	-0.549	62.22	2.64	-28.02	-15.575	-33.783	-53.417	0.8273	0.50912	-0.10251	-0.21393	24.4	13113	100	53.06395176372751	1
2025-5-20 11:27:13.388	WT901BLE68(76B4B30218CB)	-0.066	0.912	0.442	-5.737	-3.052	-0.549	62.2	2.64	-28.05	-15.575	-33.783	-53.417	0.8273	0.50912	-0.10251	-0.21393	24.4	13113	100	53.06395176372751	1
2025-5-20 11:27:13.388	WT901BLE68(76B4B30218CB)	-0.066	0.912	0.442	-5.737	-3.052	-0.549	62.17	2.64	-28.07	-15.575	-33.783	-53.417	0.8273	0.50912	-0.10251	-0.21393	24.4	13113	100	53.06395176372751	1
2025-5-20 11:27:13.388	WT901BLE68(76B4B30218CB)	-0.065	0.912	0.442	-5.737	-3.052	-0.549	62.15	2.63	-28.1	-15.575	-33.783	-53.417	0.8273	0.50912	-0.10251	-0.21393	24.4	13113	100	53.06395176372751	1
2025-5-20 11:27:13.388	WT901BLE68(76B4B30218CB)	-0.065	0.909	0.45	-7.202	-2.93	-1.587	62.12	2.64	-28.13	-15.575	-33.783	-53.417	0.8273	0.50912	-0.10251	-0.21393	24.4	13113	100	53.06395176372751	1
2025-5-20 11:27:13.388	WT901BLE68(76B4B30218CB)	-0.065	0.909	0.45	-7.202	-2.93	-1.587	62.09	2.64	-28.15	-15.575	-33.783	-53.417	0.8273	0.50912	-0.10251	-0.21393	24.4	13113	100	53.06395176372751	1
2025-5-20 11:27:13.388	WT901BLE68(76B4B30218CB)	-0.065	0.909	0.45	-7.202	-2.93	-1.587	62.06	2.64	-28.18	-15.575	-33.783	-53.417	0.8273	0.50912	-0.10251	-0.21393	24.4	13113	100	53.06395176372751	1
2025-5-20 11:27:13.388	WT901BLE68(76B4B30218CB)	-0.048	0.909	0.45	-7.202	-2.93	-1.587	62.02	2.64	-28.2	-15.575	-33.783	-53.417	0.8273	0.50912	-0.10251	-0.21393	24.4	13113	100	53.06395176372751	1
2025-5-20 11:27:13.418	WT901BLE68(76B4B30218CB)	-0.048	0.907	0.451	-7.813	-2.747	-0.61	61.99	2.64	-28.23	-15.575	-33.783	-53.417	0.8273	0.50912	-0.10251	-0.21393	24.4	13113	100	53.06395176372751	1
2025-5-20 11:27:13.418	WT901BLE68(76B4B30218CB)	-0.048	0.907	0.451	-7.813	-2.747	-0.61	61.96	2.64	-28.25	-15.575	-33.783	-53.417	0.8273	0.50912	-0.10251	-0.21393	24.4	13113	100	53.06395176372751	1
2025-5-20 11:27:13.418	WT901BLE68(76B4B30218CB)	-0.048	0.907	0.451	-7.813	-2.747	-0.61	61.92	2.64	-28.27	-15.575	-33.783	-53.417	0.8273	0.50912	-0.10251	-0.21393	24.4	13113	100	53.06395176372751	1
2025-5-20 11:27:13.418	WT901BLE68(76B4B30218CB)	-0.039	0.907	0.451	-7.813	-2.747	-0.61	61.89	2.64	-28.29	-15.575	-33.783	-53.417	0.8273	0.50912	-0.10251	-0.21393	24.4	13113	100	53.06395176372751	1
2025-5-20 11:27:13.418	WT901BLE68(76B4B30218CB)	-0.039	0.904	0.453	-8.362	-3.052	0.854	61.85	2.63	-28.31	-15.575	-33.783	-53.417	0.8273	0.50912	-0.10251	-0.21393	24.4	13113	100	53.06395176372751	1
2025-5-20 11:27:13.418	WT901BLE68(76B4B30218CB)	-0.039	0.904	0.453	-8.362	-3.052	0.854	61.81	2.62	-28.33	-15.575	-33.783	-53.417	0.8273	0.50912	-0.10251	-0.21393	24.4	13113	100	53.06395176372751	1
2025-5-20 11:27:13.418	WT901BLE68(76B4B30218CB)	-0.039	0.904	0.453	-8.362	-3.052	0.854	61.78	2.61	-28.34	-15.875	-33.933	-52.983	0.8273	0.50912	-0.10251	-0.21393	24.4	13113	100	53.06395176372751	1
2025-5-20 11:27:13.418	WT901BLE68(76B4B30218CB)	-0.054	0.904	0.453	-8.362	-3.052	0.854	61.74	2.6	-28.36	-15.875	-33.933	-52.983	0.8273	0.50912	-0.10251	-0.21393	24.4	13113	100	53.06395176372751	1
2025-5-20 11:27:13.455	WT901BLE68(76B4B30218CB)	-0.054	0.896	0.452	-9.277	-2.502	2.319	61.7	2.59	-28.37	-15.875	-33.933	-52.983	0.8273	0.50912	-0.10251	-0.21393	24.4	13113	100	53.06395176372751	1
2025-5-20 11:27:13.455	WT901BLE68(76B4B30218CB)	-0.054	0.896	0.452	-9.277	-2.502	2.319	61.66	2.57	-28.38	-15.875	-33.933	-52.983	0.8273	0.50912	-0.10251	-0.21393	24.4	13113	100	53.06395176372751	1
2025-5-20 11:27:13.455	WT901BLE68(76B4B30218CB)	-0.054	0.896	0.452	-9.277	-2.502	2.319	61.62	2.56	-28.39	-15.875	-33.933	-52.983	0.8273	0.50912	-0.10251	-0.21393	24.4	13113	100	53.06395176372751	1
2025-5-20 11:27:13.455	WT901BLE68(76B4B30218CB)	-0.057	0.896	0.452	-9.277	-2.502	2.319	61.58	2.54	-28.41	-15.875	-33.933	-52.983	0.8273	0.50912	-0.10251	-0.21393	24.4	13113	100	53.06395176372751	1
2025-5-20 11:27:13.455	WT901BLE68(76B4B30218CB)	-0.057	0.897	0.455	-10.62	-2.319	2.014	61.53	2.53	-28.41	-15.875	-33.933	-52.983	0.8273	0.50912	-0.10251	-0.21393	24.4	13113	100	53.06395176372751	1
2025-5-20 11:27:13.455	WT901BLE68(76B4B30218CB)	-0.057	0.897	0.455	-10.62	-2.319	2.014	61.49	2.52	-28.42	-15.875	-33.933	-52.983	0.8273	0.50912	-0.10251	-0.21393	24.4	13113	100	53.06395176372751	1
2025-5-20 11:27:13.455	WT901BLE68(76B4B30218CB)	-0.057	0.897	0.455	-10.62	-2.319	2.014	61.44	2.5	-28.43	-15.875	-33.933	-52.983	0.8273	0.50912	-0.10251	-0.21393	24.4	13113	100	53.06395176372751	1
2025-5-20 11:27:13.455	WT901BLE68(76B4B30218CB)	-0.047	0.897	0.455	-10.62	-2.319	2.014	61.4	2.49	-28.44	-15.875	-33.933	-52.983	0.8273	0.50912	-0.10251	-0.21393	24.4	13113	100	53.06395176372751	1
2025-5-20 11:27:13.508	WT901BLE68(76B4B30218CB)	-0.047	0.91	0.453	-11.719	-2.258	-0.183	61.34	2.49	-28.45	-15.875	-33.933	-52.983	0.8273	0.50912	-0.10251	-0.21393	24.4	13113	100	53.06395176372751	1
2025-5-20 11:27:13.508	WT901BLE68(76B4B30218CB)	-0.047	0.91	0.453	-11.719	-2.258	-0.183	61.29	2.49	-28.47	-15.875	-33.933	-52.983	0.8273	0.50912	-0.10251	-0.21393	24.4	13113	100	53.06395176372751	1
2025-5-20 11:27:13.508	WT901BLE68(76B4B30218CB)	-0.047	0.91	0.453	-11.719	-2.258	-0.183	61.24	2.48	-28.49	-15.875	-33.933	-52.983	0.8273	0.50912	-0.10251	-0.21393	24.4	13113	100	53.06395176372751	1
2025-5-20 11:27:13.509	WT901BLE68(76B4B30218CB)	-0.049	0.91	0.453	-11.719	-2.258	-0.183	61.19	2.48	-28.5	-15.875	-33.933	-52.983	0.8273	0.50912	-0.10251	-0.21393	24.4	13113	100	53.06395176372751	1
2025-5-20 11:27:13.509	WT901BLE68(76B4B30218CB)	-0.049	0.902	0.45	-13.611	-3.418	-1.831	61.12	2.48	-28.53	-15.875	-33.933	-52.983	0.8273	0.50912	-0.10251	-0.21393	24.4	13113	100	53.06395176372751	1
2025-5-20 11:27:13.509	WT901BLE68(76B4B30218CB)	-0.049	0.902	0.45	-13.611	-3.418	-1.831	61.06	2.48	-28.55	-15.875	-33.933	-52.983	0.8273	0.50912	-0.10251	-0.21393	24.4	13113	100	53.06395176372751	1
2025-5-20 11:27:13.509	WT901BLE68(76B4B30218CB)	-0.049	0.902	0.45	-13.611	-3.418	-1.831	61.0	2.49	-28.57	-15.875	-33.933	-52.983	0.8273	0.50912	-0.10251	-0.21393	24.4	13113	100	53.06395176372751	1
2025-5-20 11:27:13.509	WT901BLE68(76B4B30218CB)	-0.064	0.902	0.45	-13.611	-3.418	-1.831	60.94	2.49	-28.59	-15.875	-33.933	-52.983	0.8273	0.50912	-0.10251	-0.21393	24.4	13113	100	53.06395176372751	1
2025-5-20 11:27:13.538	WT901BLE68(76B4B30218CB)	-0.064	0.908	0.456	-16.235	-4.761	-2.93	60.86	2.49	-28.62	-15.875	-33.933	-52.983	0.8273	0.50912	-0.10251	-0.21393	24.4	13113	100	53.06395176372751	1
2025-5-20 11:27:13.538	WT901BLE68(76B4B30218CB)	-0.064	0.908	0.456	-16.235	-4.761	-2.93	60.79	2.49	-28.66	-15.875	-33.933	-52.983	0.8273	0.50912	-0.10251	-0.21393	24.4	13113	100	53.06395176372751	1
2025-5-20 11:27:13.538	WT901BLE68(76B4B30218CB)	-0.064	0.908	0.456	-16.235	-4.761	-2.93	60.72	2.5	-28.69	-15.875	-33.933	-52.983	0.8273	0.50912	-0.10251	-0.21393	24.4	13113	100	53.06395176372751	1
2025-5-20 11:27:13.538	WT901BLE68(76B4B30218CB)	-0.058	0.908	0.456	-16.235	-4.761	-2.93	60.64	2.5	-28.72	-15.875	-33.933	-52.983	0.8273	0.50912	-0.10251	-0.21393	24.4	13113	100	53.06395176372751	1
2025-5-20 11:27:13.538	WT901BLE68(76B4B30218CB)	-0.058	0.9	0.465	-18.982	-4.639	-4.517	60.56	2.51	-28.76	-15.875	-33.933	-52.983	0.8273	0.50912	-0.10251	-0.21393	24.4	13113	100	53.06395176372751	1
2025-5-20 11:27:13.539	WT901BLE68(76B4B30218CB)	-0.058	0.9	0.465	-18.982	-4.639	-4.517	60.47	2.52	-28.79	-15.875	-33.933	-52.983	0.8273	0.50912	-0.10251	-0.21393	24.4	13113	100	53.06395176372751	1
2025-5-20 11:27:13.539	WT901BLE68(76B4B30218CB)	-0.058	0.9	0.465	-18.982	-4.639	-4.517	60.38	2.53	-28.83	-15.875	-33.933	-52.983	0.8273	0.50912	-0.10251	-0.21393	24.4	13113	100	53.06395176372751	1
2025-5-20 11:27:13.539	WT901BLE68(76B4B30218CB)	-0.067	0.9	0.465	-18.982	-4.639	-4.517	60.29	2.54	-28.86	-15.875	-33.933	-52.983	0.8273	0.50912	-0.10251	-0.21393	24.4	13113	100	53.06395176372751	1
2025-5-20 11:27:13.569	WT901BLE68(76B4B30218CB)	-0.067	0.88	0.471	-22.217	-5.005	-6.348	60.19	2.55	-28.9	-15.875	-33.933	-52.983	0.8273	0.50912	-0.10251	-0.21393	24.4	13113	100	53.06395176372751	1
2025-5-20 11:27:13.569	WT901BLE68(76B4B30218CB)	-0.067	0.88	0.471	-22.217	-5.005	-6.348	60.09	2.57	-28.94	-15.875	-33.933	-52.983	0.8273	0.50912	-0.10251	-0.21393	24.4	13113	100	53.06395176372751	1
2025-5-20 11:27:13.569	WT901BLE68(76B4B30218CB)	-0.067	0.88	0.471	-22.217	-5.005	-6.348	59.99	2.59	-28.98	-15.875	-33.933	-52.983	0.8273	0.50912	-0.10251	-0.21393	24.4	13113	100	53.06395176372751	1
2025-5-20 11:27:13.569	WT901BLE68(76B4B30218CB)	-0.091	0.88	0.471	-22.217	-5.005	-6.348	59.88	2.61	-29.03	-15.875	-33.933	-52.983	0.8273	0.50912	-0.10251	-0.21393	24.4	13113	100	53.06395176372751	1
2025-5-20 11:27:13.569	WT901BLE68(76B4B30218CB)	-0.091	0.867	0.481	-26.55	-6.348	-8.911	59.75	2.63	-29.08	-15.875	-33.933	-52.983	0.8273	0.50912	-0.10251	-0.21393	24.4	13113	100	53.06395176372751	1
2025-5-20 11:27:13.569	WT901BLE68(76B4B30218CB)	-0.091	0.867	0.481	-26.55	-6.348	-8.911	59.63	2.66	-29.13	-15.875	-33.933	-52.983	0.8273	0.50912	-0.10251	-0.21393	24.4	13113	100	53.06395176372751	1
2025-5-20 11:27:13.569	WT901BLE68(76B4B30218CB)	-0.091	0.867	0.481	-26.55	-6.348	-8.911	59.51	2.68	-29.19	-15.875	-33.933	-52.983	0.8273	0.50912	-0.10251	-0.21393	24.4	13113	100	53.06395176372751	1
2025-5-20 11:27:13.569	WT901BLE68(76B4B30218CB)	-0.114	0.867	0.481	-26.55	-6.348	-8.911	59.38	2.71	-29.25	-15.875	-33.933	-52.983	0.8273	0.50912	-0.10251	-0.21393	24.4	13113	100	53.06395176372751	1
2025-5-20 11:27:13.627	WT901BLE68(76B4B30218CB)	-0.114	0.87	0.481	-31.311	-7.263	-15.625	59.23	2.76	-29.32	-15.875	-33.933	-52.983	0.8273	0.50912	-0.10251	-0.21393	24.4	13113	100	53.06395176372751	1
2025-5-20 11:27:13.627	WT901BLE68(76B4B30218CB)	-0.114	0.87	0.481	-31.311	-7.263	-15.625	59.08	2.81	-29.4	-15.875	-33.933	-52.983	0.8273	0.50912	-0.10251	-0.21393	24.4	13113	100	53.06395176372751	1
2025-5-20 11:27:13.627	WT901BLE68(76B4B30218CB)	-0.114	0.87	0.481	-31.311	-7.263	-15.625	58.93	2.86	-29.48	-15.875	-33.933	-52.983	0.8273	0.50912	-0.10251	-0.21393	24.4	13113	100	53.06395176372751	1
2025-5-20 11:27:13.627	WT901BLE68(76B4B30218CB)	-0.025	0.87	0.481	-31.311	-7.263	-15.625	58.78	2.91	-29.55	-15.875	-33.933	-52.983	0.8273	0.50912	-0.10251	-0.21393	24.4	13113	100	53.06395176372751	1
2025-5-20 11:27:13.627	WT901BLE68(76B4B30218CB)	-0.025	0.894	0.484	-34.607	-6.287	-18.494	58.62	2.98	-29.64	-15.875	-33.933	-52.983	0.8273	0.50912	-0.10251	-0.21393	24.4	13113	100	53.06395176372751	1
2025-5-20 11:27:13.627	WT901BLE68(76B4B30218CB)	-0.025	0.894	0.484	-34.607	-6.287	-18.494	58.45	3.04	-29.72	-15.875	-33.933	-52.983	0.8273	0.50912	-0.10251	-0.21393	24.4	13113	100	53.06395176372751	1
2025-5-20 11:27:13.627	WT901BLE68(76B4B30218CB)	-0.025	0.894	0.484	-34.607	-6.287	-18.494	58.29	3.11	-29.79	-15.875	-33.933	-52.983	0.8273	0.50912	-0.10251	-0.21393	24.4	13113	100	53.06395176372751	1
2025-5-20 11:27:13.627	WT901BLE68(76B4B30218CB)	0.021	0.894	0.484	-34.607	-6.287	-18.494	58.12	3.17	-29.88	-15.875	-33.933	-52.983	0.8273	0.50912	-0.10251	-0.21393	24.4	13113	100	53.06395176372751	1
2025-5-20 11:27:13.659	WT901BLE68(76B4B30218CB)	0.021	0.912	0.491	-35.889	-5.249	-16.785	57.95	3.23	-29.94	-15.875	-33.933	-52.983	0.84122	0.47418	-0.10126	-0.23911	24.4	13113	100	51.42105880176233	1
2025-5-20 11:27:13.659	WT901BLE68(76B4B30218CB)	0.021	0.912	0.491	-35.889	-5.249	-16.785	57.78	3.28	-30.01	-15.875	-33.933	-52.983	0.84122	0.47418	-0.10126	-0.23911	24.4	13113	100	51.42105880176233	1
2025-5-20 11:27:13.659	WT901BLE68(76B4B30218CB)	0.021	0.912	0.491	-35.889	-5.249	-16.785	57.61	3.34	-30.08	-15.875	-33.933	-52.983	0.84122	0.47418	-0.10126	-0.23911	24.4	13113	100	51.42105880176233	1
2025-5-20 11:27:13.659	WT901BLE68(76B4B30218CB)	-0.003	0.912	0.491	-35.889	-5.249	-16.785	57.44	3.39	-30.14	-15.875	-33.933	-52.983	0.84122	0.47418	-0.10126	-0.23911	24.4	13113	100	51.42105880176233	1
2025-5-20 11:27:13.659	WT901BLE68(76B4B30218CB)	-0.003	0.885	0.494	-36.987	-4.395	-12.512	57.27	3.43	-30.19	-15.875	-33.933	-52.983	0.84122	0.47418	-0.10126	-0.23911	24.4	13113	100	51.42105880176233	1
2025-5-20 11:27:13.659	WT901BLE68(76B4B30218CB)	-0.003	0.885	0.494	-36.987	-4.395	-12.512	57.1	3.47	-30.24	-15.875	-33.933	-52.983	0.84122	0.47418	-0.10126	-0.23911	24.4	13113	100	51.42105880176233	1
2025-5-20 11:27:13.659	WT901BLE68(76B4B30218CB)	-0.003	0.885	0.494	-36.987	-4.395	-12.512	56.92	3.51	-30.28	-15.875	-33.933	-52.983	0.84122	0.47418	-0.10126	-0.23911	24.4	13113	100	51.42105880176233	1
2025-5-20 11:27:13.659	WT901BLE68(76B4B30218CB)	-0.067	0.885	0.494	-36.987	-4.395	-12.512	56.75	3.55	-30.33	-15.875	-33.933	-52.983	0.84122	0.47418	-0.10126	-0.23911	24.4	13113	100	51.42105880176233	1
2025-5-20 11:27:13.688	WT901BLE68(76B4B30218CB)	-0.067	0.874	0.5	-39.063	-1.465	-6.165	56.57	3.57	-30.35	-15.875	-33.933	-52.983	0.84122	0.47418	-0.10126	-0.23911	24.4	13113	100	52.69196789063224	1
2025-5-20 11:27:13.688	WT901BLE68(76B4B30218CB)	-0.067	0.874	0.5	-39.063	-1.465	-6.165	56.39	3.58	-30.37	-15.875	-33.933	-52.983	0.84122	0.47418	-0.10126	-0.23911	24.4	13113	100	52.69196789063224	1
2025-5-20 11:27:13.688	WT901BLE68(76B4B30218CB)	-0.067	0.874	0.5	-39.063	-1.465	-6.165	56.21	3.6	-30.39	-15.875	-33.933	-52.983	0.84122	0.47418	-0.10126	-0.23911	24.4	13113	100	52.69196789063224	1
2025-5-20 11:27:13.688	WT901BLE68(76B4B30218CB)	-0.124	0.874	0.5	-39.063	-1.465	-6.165	56.03	3.62	-30.4	-15.875	-33.933	-52.983	0.84122	0.47418	-0.10126	-0.23911	24.4	13113	100	52.69196789063224	1
2025-5-20 11:27:13.688	WT901BLE68(76B4B30218CB)	-0.124	0.865	0.514	-41.565	-1.221	-8.179	55.84	3.65	-30.43	-15.875	-33.933	-52.983	0.84122	0.47418	-0.10126	-0.23911	24.4	13113	100	52.69196789063224	1
2025-5-20 11:27:13.688	WT901BLE68(76B4B30218CB)	-0.124	0.865	0.514	-41.565	-1.221	-8.179	55.65	3.67	-30.45	-15.875	-33.933	-52.983	0.84122	0.47418	-0.10126	-0.23911	24.4	13113	100	52.69196789063224	1
2025-5-20 11:27:13.688	WT901BLE68(76B4B30218CB)	-0.124	0.865	0.514	-41.565	-1.221	-8.179	55.45	3.71	-30.48	-15.875	-33.933	-52.983	0.84122	0.47418	-0.10126	-0.23911	24.4	13113	100	52.69196789063224	1
2025-5-20 11:27:13.688	WT901BLE68(76B4B30218CB)	-0.097	0.865	0.514	-41.565	-1.221	-8.179	55.26	3.74	-30.5	-15.875	-33.933	-52.983	0.84122	0.47418	-0.10126	-0.23911	24.4	13113	100	52.69196789063224	1
2025-5-20 11:27:13.776	WT901BLE68(76B4B30218CB)	-0.097	0.82	0.532	-42.847	-3.174	-10.559	55.06	3.77	-30.54	-15.875	-33.933	-52.983	0.84122	0.47418	-0.10126	-0.23911	24.4	13113	100	52.69196789063224	1
2025-5-20 11:27:13.776	WT901BLE68(76B4B30218CB)	-0.097	0.82	0.532	-42.847	-3.174	-10.559	54.86	3.8	-30.59	-15.875	-33.933	-52.983	0.84122	0.47418	-0.10126	-0.23911	24.4	13113	100	52.69196789063224	1
2025-5-20 11:27:13.776	WT901BLE68(76B4B30218CB)	-0.097	0.82	0.532	-42.847	-3.174	-10.559	54.66	3.83	-30.62	-15.875	-33.933	-52.983	0.84122	0.47418	-0.10126	-0.23911	24.4	13113	100	52.69196789063224	1
2025-5-20 11:27:13.776	WT901BLE68(76B4B30218CB)	-0.074	0.82	0.532	-42.847	-3.174	-10.559	54.46	3.87	-30.67	-15.875	-33.933	-52.983	0.84122	0.47418	-0.10126	-0.23911	24.4	13113	100	52.69196789063224	1
2025-5-20 11:27:13.776	WT901BLE68(76B4B30218CB)	-0.074	0.788	0.544	-45.471	-2.319	-5.615	54.25	3.88	-30.69	-15.875	-33.933	-52.983	0.84122	0.47418	-0.10126	-0.23911	24.4	13113	100	52.69196789063224	1
2025-5-20 11:27:13.776	WT901BLE68(76B4B30218CB)	-0.074	0.788	0.544	-45.471	-2.319	-5.615	54.04	3.9	-30.72	-15.875	-33.933	-52.983	0.84122	0.47418	-0.10126	-0.23911	24.4	13113	100	52.69196789063224	1
2025-5-20 11:27:13.776	WT901BLE68(76B4B30218CB)	-0.074	0.788	0.544	-45.471	-2.319	-5.615	53.83	3.92	-30.74	-15.875	-33.933	-52.983	0.84122	0.47418	-0.10126	-0.23911	24.4	13113	100	52.69196789063224	1
2025-5-20 11:27:13.776	WT901BLE68(76B4B30218CB)	-0.085	0.788	0.544	-45.471	-2.319	-5.615	53.62	3.93	-30.77	-15.875	-33.933	-52.983	0.84122	0.47418	-0.10126	-0.23911	24.4	13113	100	52.69196789063224	1
2025-5-20 11:27:13.777	WT901BLE68(76B4B30218CB)	-0.085	0.821	0.56	-47.852	-1.465	0.427	53.39	3.93	-30.77	-15.875	-33.933	-52.983	0.84122	0.47418	-0.10126	-0.23911	24.4	13113	100	52.69196789063224	1
2025-5-20 11:27:13.777	WT901BLE68(76B4B30218CB)	-0.085	0.821	0.56	-47.852	-1.465	0.427	53.17	3.92	-30.78	-15.875	-33.933	-52.983	0.84122	0.47418	-0.10126	-0.23911	24.4	13113	100	52.69196789063224	1
2025-5-20 11:27:13.777	WT901BLE68(76B4B30218CB)	-0.085	0.821	0.56	-47.852	-1.465	0.427	52.95	3.92	-30.78	-15.875	-33.933	-52.983	0.84122	0.47418	-0.10126	-0.23911	24.4	13113	100	52.69196789063224	1
2025-5-20 11:27:13.777	WT901BLE68(76B4B30218CB)	-0.069	0.821	0.56	-47.852	-1.465	0.427	52.73	3.91	-30.79	-15.875	-33.933	-52.983	0.84122	0.47418	-0.10126	-0.23911	24.4	13113	100	52.69196789063224	1
2025-5-20 11:27:13.777	WT901BLE68(76B4B30218CB)	-0.069	0.847	0.568	-48.096	-0.793	1.587	52.51	3.9	-30.79	-15.875	-33.933	-52.983	0.84122	0.47418	-0.10126	-0.23911	24.4	13113	100	52.69196789063224	1
2025-5-20 11:27:13.777	WT901BLE68(76B4B30218CB)	-0.069	0.847	0.568	-48.096	-0.793	1.587	52.28	3.89	-30.79	-15.875	-33.933	-52.983	0.84122	0.47418	-0.10126	-0.23911	24.4	13113	100	52.69196789063224	1
2025-5-20 11:27:13.777	WT901BLE68(76B4B30218CB)	-0.069	0.847	0.568	-48.096	-0.793	1.587	52.06	3.88	-30.79	-15.875	-33.933	-52.983	0.84122	0.47418	-0.10126	-0.23911	24.4	13113	100	52.69196789063224	1
2025-5-20 11:27:13.777	WT901BLE68(76B4B30218CB)	-0.078	0.847	0.568	-48.096	-0.793	1.587	51.84	3.88	-30.79	-15.875	-33.933	-52.983	0.84122	0.47418	-0.10126	-0.23911	24.4	13113	100	52.69196789063224	1
2025-5-20 11:27:13.808	WT901BLE68(76B4B30218CB)	-0.078	0.816	0.586	-46.936	-0.732	-2.014	51.63	3.88	-30.81	-15.875	-33.933	-52.983	0.84122	0.47418	-0.10126	-0.23911	24.4	13113	100	52.69196789063224	1
2025-5-20 11:27:13.808	WT901BLE68(76B4B30218CB)	-0.078	0.816	0.586	-46.936	-0.732	-2.014	51.41	3.89	-30.82	-15.875	-33.933	-52.983	0.84122	0.47418	-0.10126	-0.23911	24.4	13113	100	52.69196789063224	1
2025-5-20 11:27:13.808	WT901BLE68(76B4B30218CB)	-0.079	0.816	0.586	-46.936	-0.732	-2.014	51.2	3.89	-30.83	-15.875	-33.933	-52.983	0.84122	0.47418	-0.10126	-0.23911	24.4	13113	100	52.69196789063224	1
2025-5-20 11:27:13.808	WT901BLE68(76B4B30218CB)	-0.079	0.742	0.611	-47.607	1.465	-3.235	50.98	3.91	-30.84	-15.875	-33.933	-52.983	0.84122	0.47418	-0.10126	-0.23911	24.4	13113	100	52.69196789063224	1
2025-5-20 11:27:13.808	WT901BLE68(76B4B30218CB)	-0.079	0.742	0.611	-47.607	1.465	-3.235	50.76	3.93	-30.84	-16.442	-27.667	-56.558	0.84122	0.47418	-0.10126	-0.23911	24.4	13113	100	52.69196789063224	1
2025-5-20 11:27:13.808	WT901BLE68(76B4B30218CB)	-0.079	0.742	0.611	-47.607	1.465	-3.235	50.54	3.95	-30.86	-16.442	-27.667	-56.558	0.84122	0.47418	-0.10126	-0.23911	24.4	13113	100	52.69196789063224	1
2025-5-20 11:27:13.808	WT901BLE68(76B4B30218CB)	-0.087	0.742	0.611	-47.607	1.465	-3.235	50.32	3.97	-30.86	-16.442	-27.667	-56.558	0.84122	0.47418	-0.10126	-0.23911	24.4	13113	100	52.69196789063224	1
2025-5-20 11:27:13.808	WT901BLE68(76B4B30218CB)	-0.087	0.708	0.64	-50.11	0.0	-1.099	50.09	3.97	-30.87	-16.442	-27.667	-56.558	0.84122	0.47418	-0.10126	-0.23911	24.4	13113	100	52.69196789063224	1
2025-5-20 11:27:13.869	WT901BLE68(76B4B30218CB)	-0.087	0.708	0.64	-50.11	0.0	-1.099	49.85	3.98	-30.88	-16.442	-27.667	-56.558	0.84122	0.47418	-0.10126	-0.23911	24.4	13113	100	52.69196789063224	1
2025-5-20 11:27:13.869	WT901BLE68(76B4B30218CB)	-0.087	0.708	0.64	-50.11	0.0	-1.099	49.62	3.98	-30.89	-16.442	-27.667	-56.558	0.84122	0.47418	-0.10126	-0.23911	24.4	13113	100	52.69196789063224	1
2025-5-20 11:27:13.869	WT901BLE68(76B4B30218CB)	-0.076	0.708	0.64	-50.11	0.0	-1.099	49.38	3.99	-30.9	-16.442	-27.667	-56.558	0.84122	0.47418	-0.10126	-0.23911	24.4	13113	100	52.69196789063224	1
2025-5-20 11:27:13.869	WT901BLE68(76B4B30218CB)	-0.076	0.708	0.652	-51.392	-0.427	1.099	49.14	3.98	-30.9	-16.442	-27.667	-56.558	0.84122	0.47418	-0.10126	-0.23911	24.4	13113	100	52.69196789063224	1
2025-5-20 11:27:13.869	WT901BLE68(76B4B30218CB)	-0.076	0.708	0.652	-51.392	-0.427	1.099	48.9	3.98	-30.91	-16.442	-27.667	-56.558	0.84122	0.47418	-0.10126	-0.23911	24.4	13113	100	52.69196789063224	1
2025-5-20 11:27:13.869	WT901BLE68(76B4B30218CB)	-0.076	0.708	0.652	-51.392	-0.427	1.099	48.66	3.97	-30.92	-16.442	-27.667	-56.558	0.84122	0.47418	-0.10126	-0.23911	24.4	13113	100	52.69196789063224	1
2025-5-20 11:27:13.869	WT901BLE68(76B4B30218CB)	-0.052	0.708	0.652	-51.392	-0.427	1.099	48.42	3.97	-30.92	-16.442	-27.667	-56.558	0.84122	0.47418	-0.10126	-0.23911	24.4	13113	100	52.69196789063224	1
2025-5-20 11:27:13.869	WT901BLE68(76B4B30218CB)	-0.052	0.71	0.663	-51.514	0.61	5.005	48.18	3.95	-30.91	-16.442	-27.667	-56.558	0.84122	0.47418	-0.10126	-0.23911	24.4	13113	100	52.69196789063224	1
2025-5-20 11:27:13.897	WT901BLE68(76B4B30218CB)	-0.052	0.71	0.663	-51.514	0.61	5.005	47.94	3.94	-30.9	-16.442	-27.667	-56.558	0.84122	0.47418	-0.10126	-0.23911	24.4	13113	100	52.69196789063224	1
2025-5-20 11:27:13.897	WT901BLE68(76B4B30218CB)	-0.052	0.71	0.663	-51.514	0.61	5.005	47.7	3.92	-30.89	-16.442	-27.667	-56.558	0.84122	0.47418	-0.10126	-0.23911	24.4	13113	100	52.69196789063224	1
2025-5-20 11:27:13.897	WT901BLE68(76B4B30218CB)	-0.073	0.71	0.663	-51.514	0.61	5.005	47.46	3.91	-30.88	-16.442	-27.667	-56.558	0.84122	0.47418	-0.10126	-0.23911	24.4	13113	100	52.69196789063224	1
2025-5-20 11:27:13.897	WT901BLE68(76B4B30218CB)	-0.073	0.717	0.681	-51.758	3.601	5.676	47.21	3.89	-30.86	-16.442	-27.667	-56.558	0.84122	0.47418	-0.10126	-0.23911	24.4	13113	100	52.69196789063224	1
2025-5-20 11:27:13.897	WT901BLE68(76B4B30218CB)	-0.073	0.717	0.681	-51.758	3.601	5.676	46.97	3.89	-30.84	-16.442	-27.667	-56.558	0.84122	0.47418	-0.10126	-0.23911	24.4	13113	100	52.69196789063224	1
2025-5-20 11:27:13.897	WT901BLE68(76B4B30218CB)	-0.073	0.717	0.681	-51.758	3.601	5.676	46.73	3.88	-30.82	-16.442	-27.667	-56.558	0.84122	0.47418	-0.10126	-0.23911	24.4	13113	100	52.69196789063224	1
2025-5-20 11:27:13.897	WT901BLE68(76B4B30218CB)	-0.08	0.717	0.681	-51.758	3.601	5.676	46.48	3.87	-30.79	-16.442	-27.667	-56.558	0.84122	0.47418	-0.10126	-0.23911	24.4	13113	100	52.69196789063224	1
2025-5-20 11:27:13.897	WT901BLE68(76B4B30218CB)	-0.08	0.688	0.695	-51.086	3.967	4.089	46.25	3.87	-30.78	-16.442	-27.667	-56.558	0.84122	0.47418	-0.10126	-0.23911	24.4	13113	100	52.69196789063224	1
2025-5-20 11:27:13.929	WT901BLE68(76B4B30218CB)	-0.08	0.688	0.695	-51.086	3.967	4.089	46.01	3.87	-30.76	-16.442	-27.667	-56.558	0.84122	0.47418	-0.10126	-0.23911	24.4	13113	100	52.69196789063224	1
2025-5-20 11:27:13.929	WT901BLE68(76B4B30218CB)	-0.08	0.688	0.695	-51.086	3.967	4.089	45.77	3.87	-30.75	-16.442	-27.667	-56.558	0.84122	0.47418	-0.10126	-0.23911	24.4	13113	100	52.69196789063224	1
2025-5-20 11:27:13.929	WT901BLE68(76B4B30218CB)	-0.076	0.688	0.695	-51.086	3.967	4.089	45.53	3.87	-30.73	-16.442	-27.667	-56.558	0.84122	0.47418	-0.10126	-0.23911	24.4	13113	100	52.69196789063224	1
2025-5-20 11:27:13.929	WT901BLE68(76B4B30218CB)	-0.076	0.655	0.702	-51.147	3.174	4.089	45.29	3.87	-30.72	-16.442	-27.667	-56.558	0.84122	0.47418	-0.10126	-0.23911	24.4	13113	100	52.69196789063224	1
2025-5-20 11:27:13.929	WT901BLE68(76B4B30218CB)	-0.076	0.655	0.702	-51.147	3.174	4.089	45.04	3.87	-30.7	-16.442	-27.667	-56.558	0.84122	0.47418	-0.10126	-0.23911	24.4	13113	100	52.69196789063224	1
2025-5-20 11:27:13.929	WT901BLE68(76B4B30218CB)	-0.076	0.655	0.702	-51.147	3.174	4.089	44.8	3.87	-30.69	-16.442	-27.667	-56.558	0.84122	0.47418	-0.10126	-0.23911	24.4	13113	100	52.69196789063224	1
2025-5-20 11:27:13.929	WT901BLE68(76B4B30218CB)	-0.087	0.655	0.702	-51.147	3.174	4.089	44.56	3.86	-30.68	-16.442	-27.667	-56.558	0.84122	0.47418	-0.10126	-0.23911	24.4	13113	100	52.69196789063224	1
2025-5-20 11:27:13.929	WT901BLE68(76B4B30218CB)	-0.087	0.642	0.711	-52.246	2.686	4.517	44.31	3.86	-30.67	-16.442	-27.667	-56.558	0.84122	0.47418	-0.10126	-0.23911	24.4	13113	100	52.69196789063224	1
2025-5-20 11:27:13.989	WT901BLE68(76B4B30218CB)	-0.087	0.642	0.711	-52.246	2.686	4.517	44.07	3.85	-30.66	-16.442	-27.667	-56.558	0.84122	0.47418	-0.10126	-0.23911	24.4	13113	100	52.69196789063224	1
2025-5-20 11:27:13.989	WT901BLE68(76B4B30218CB)	-0.087	0.642	0.711	-52.246	2.686	4.517	43.82	3.85	-30.65	-16.442	-27.667	-56.558	0.84122	0.47418	-0.10126	-0.23911	24.4	13113	100	52.69196789063224	1
2025-5-20 11:27:13.989	WT901BLE68(76B4B30218CB)	-0.093	0.642	0.711	-52.246	2.686	4.517	43.57	3.85	-30.64	-16.442	-27.667	-56.558	0.84122	0.47418	-0.10126	-0.23911	24.4	13113	100	52.69196789063224	1
2025-5-20 11:27:13.989	WT901BLE68(76B4B30218CB)	-0.093	0.63	0.721	-53.345	2.197	6.592	43.32	3.83	-30.62	-16.442	-27.667	-56.558	0.84122	0.47418	-0.10126	-0.23911	24.4	13113	100	52.69196789063224	1
2025-5-20 11:27:13.989	WT901BLE68(76B4B30218CB)	-0.093	0.63	0.721	-53.345	2.197	6.592	43.07	3.82	-30.61	-16.442	-27.667	-56.558	0.84122	0.47418	-0.10126	-0.23911	24.4	13113	100	52.69196789063224	1
2025-5-20 11:27:13.989	WT901BLE68(76B4B30218CB)	-0.093	0.63	0.721	-53.345	2.197	6.592	42.81	3.81	-30.6	-16.442	-27.667	-56.558	0.84122	0.47418	-0.10126	-0.23911	24.4	13113	100	52.69196789063224	1
2025-5-20 11:27:13.989	WT901BLE68(76B4B30218CB)	-0.099	0.63	0.721	-53.345	2.197	6.592	42.56	3.79	-30.59	-16.442	-27.667	-56.558	0.84122	0.47418	-0.10126	-0.23911	24.4	13113	100	52.69196789063224	1
2025-5-20 11:27:13.989	WT901BLE68(76B4B30218CB)	-0.099	0.628	0.747	-54.199	3.052	6.531	42.3	3.78	-30.57	-16.442	-27.667	-56.558	0.84122	0.47418	-0.10126	-0.23911	24.4	13113	100	52.69196789063224	1
2025-5-20 11:27:14.54	WT901BLE68(76B4B30218CB)	-0.099	0.628	0.747	-54.199	3.052	6.531	42.04	3.77	-30.56	-16.442	-27.667	-56.558	0.84122	0.47418	-0.10126	-0.23911	24.4	13113	100	52.69196789063224	1
2025-5-20 11:27:14.54	WT901BLE68(76B4B30218CB)	-0.099	0.628	0.747	-54.199	3.052	6.531	41.79	3.77	-30.54	-16.442	-27.667	-56.558	0.84122	0.47418	-0.10126	-0.23911	24.4	13113	100	52.69196789063224	1
2025-5-20 11:27:14.54	WT901BLE68(76B4B30218CB)	-0.095	0.628	0.747	-54.199	3.052	6.531	41.53	3.76	-30.53	-16.442	-27.667	-56.558	0.84122	0.47418	-0.10126	-0.23911	24.4	13113	100	52.69196789063224	1
2025-5-20 11:27:14.54	WT901BLE68(76B4B30218CB)	-0.095	0.6	0.757	-53.528	0.977	6.165	41.28	3.75	-30.53	-16.442	-27.667	-56.558	0.84122	0.47418	-0.10126	-0.23911	24.4	13113	100	52.69196789063224	1
2025-5-20 11:27:14.54	WT901BLE68(76B4B30218CB)	-0.095	0.6	0.757	-53.528	0.977	6.165	41.02	3.74	-30.52	-16.442	-27.667	-56.558	0.84122	0.47418	-0.10126	-0.23911	24.4	13113	100	52.69196789063224	1
2025-5-20 11:27:14.54	WT901BLE68(76B4B30218CB)	-0.095	0.6	0.757	-53.528	0.977	6.165	40.76	3.72	-30.52	-16.442	-27.667	-56.558	0.90082	0.34384	-0.06226	-0.25751	24.4	13113	100	55.79947921089124	1
2025-5-20 11:27:14.54	WT901BLE68(76B4B30218CB)	-0.089	0.6	0.757	-53.528	0.977	6.165	40.51	3.71	-30.52	-16.442	-27.667	-56.558	0.90082	0.34384	-0.06226	-0.25751	24.4	13113	100	55.79947921089124	1
2025-5-20 11:27:14.54	WT901BLE68(76B4B30218CB)	-0.089	0.572	0.772	-53.65	-1.526	5.493	40.25	3.69	-30.53	-16.442	-27.667	-56.558	0.90082	0.34384	-0.06226	-0.25751	24.4	13113	100	55.79947921089124	1
2025-5-20 11:27:14.54	WT901BLE68(76B4B30218CB)	-0.089	0.572	0.772	-53.65	-1.526	5.493	40.0	3.67	-30.54	-16.442	-27.667	-56.558	0.90082	0.34384	-0.06226	-0.25751	24.4	13113	100	55.79947921089124	1
2025-5-20 11:27:14.54	WT901BLE68(76B4B30218CB)	-0.089	0.572	0.772	-53.65	-1.526	5.493	39.74	3.65	-30.54	-16.442	-27.667	-56.558	0.90082	0.34384	-0.06226	-0.25751	24.4	13113	100	55.79947921089124	1
2025-5-20 11:27:14.54	WT901BLE68(76B4B30218CB)	-0.08	0.572	0.772	-53.65	-1.526	5.493	39.48	3.63	-30.55	-16.442	-27.667	-56.558	0.90082	0.34384	-0.06226	-0.25751	24.4	13113	100	55.79947921089124	1
2025-5-20 11:27:14.54	WT901BLE68(76B4B30218CB)	-0.08	0.567	0.787	-54.443	-2.869	6.165	39.22	3.6	-30.56	-16.442	-27.667	-56.558	0.90082	0.34384	-0.06226	-0.25751	24.4	13113	100	55.79947921089124	1
2025-5-20 11:27:14.54	WT901BLE68(76B4B30218CB)	-0.08	0.567	0.787	-54.443	-2.869	6.165	38.96	3.58	-30.57	-16.442	-27.667	-56.558	0.90082	0.34384	-0.06226	-0.25751	24.4	13113	100	55.79947921089124	1
2025-5-20 11:27:14.54	WT901BLE68(76B4B30218CB)	-0.08	0.567	0.787	-54.443	-2.869	6.165	38.69	3.55	-30.58	-16.442	-27.667	-56.558	0.90082	0.34384	-0.06226	-0.25751	24.4	13113	100	55.79947921089124	1
2025-5-20 11:27:14.54	WT901BLE68(76B4B30218CB)	-0.08	0.567	0.787	-54.443	-2.869	6.165	38.43	3.52	-30.59	-16.442	-27.667	-56.558	0.90082	0.34384	-0.06226	-0.25751	24.4	13113	100	48.1429596161513	1
2025-5-20 11:27:14.54	WT901BLE68(76B4B30218CB)	-0.08	0.564	0.79	-54.382	-3.54	5.859	38.17	3.49	-30.61	-16.442	-27.667	-56.558	0.90082	0.34384	-0.06226	-0.25751	24.4	13113	100	48.1429596161513	1
2025-5-20 11:27:14.108	WT901BLE68(76B4B30218CB)	-0.08	0.564	0.79	-54.382	-3.54	5.859	37.91	3.47	-30.62	-16.442	-27.667	-56.558	0.90082	0.34384	-0.06226	-0.25751	24.4	13113	100	48.1429596161513	1
2025-5-20 11:27:14.108	WT901BLE68(76B4B30218CB)	-0.08	0.564	0.79	-54.382	-3.54	5.859	37.64	3.44	-30.64	-16.442	-27.667	-56.558	0.90082	0.34384	-0.06226	-0.25751	24.4	13113	100	48.1429596161513	1
2025-5-20 11:27:14.108	WT901BLE68(76B4B30218CB)	-0.072	0.564	0.79	-54.382	-3.54	5.859	37.38	3.41	-30.65	-16.442	-27.667	-56.558	0.90082	0.34384	-0.06226	-0.25751	24.4	13113	100	48.1429596161513	1
2025-5-20 11:27:14.108	WT901BLE68(76B4B30218CB)	-0.072	0.537	0.794	-54.443	-3.906	6.226	37.12	3.38	-30.67	-16.442	-27.667	-56.558	0.90082	0.34384	-0.06226	-0.25751	24.4	13113	100	48.1429596161513	1
2025-5-20 11:27:14.108	WT901BLE68(76B4B30218CB)	-0.072	0.537	0.794	-54.443	-3.906	6.226	36.86	3.35	-30.68	-16.442	-27.667	-56.558	0.90082	0.34384	-0.06226	-0.25751	24.4	13113	100	48.1429596161513	1
2025-5-20 11:27:14.108	WT901BLE68(76B4B30218CB)	-0.072	0.537	0.794	-54.443	-3.906	6.226	36.6	3.32	-30.7	-16.442	-27.667	-56.558	0.90082	0.34384	-0.06226	-0.25751	24.4	13113	100	48.1429596161513	1
2025-5-20 11:27:14.108	WT901BLE68(76B4B30218CB)	-0.064	0.537	0.794	-54.443	-3.906	6.226	36.33	3.28	-30.71	-16.442	-27.667	-56.558	0.90082	0.34384	-0.06226	-0.25751	24.4	13113	100	48.1429596161513	1
2025-5-20 11:27:14.108	WT901BLE68(76B4B30218CB)	-0.064	0.52	0.815	-54.443	-5.066	6.287	36.07	3.25	-30.73	-16.442	-27.667	-56.558	0.90082	0.34384	-0.06226	-0.25751	24.4	13113	100	48.1429596161513	1
2025-5-20 11:27:14.136	WT901BLE68(76B4B30218CB)	-0.064	0.52	0.815	-54.443	-5.066	6.287	35.8	3.22	-30.75	-16.442	-27.667	-56.558	0.90082	0.34384	-0.06226	-0.25751	24.4	13113	100	48.1429596161513	1
2025-5-20 11:27:14.136	WT901BLE68(76B4B30218CB)	-0.064	0.52	0.815	-54.443	-5.066	6.287	35.54	3.18	-30.76	-16.442	-27.667	-56.558	0.90082	0.34384	-0.06226	-0.25751	24.4	13113	100	48.1429596161513	1
2025-5-20 11:27:14.136	WT901BLE68(76B4B30218CB)	-0.057	0.52	0.815	-54.443	-5.066	6.287	35.28	3.15	-30.78	-16.442	-27.667	-56.558	0.90082	0.34384	-0.06226	-0.25751	24.4	13113	100	48.1429596161513	1
2025-5-20 11:27:14.137	WT901BLE68(76B4B30218CB)	-0.057	0.507	0.82	-52.917	-6.592	5.005	35.02	3.11	-30.81	-16.442	-27.667	-56.558	0.90082	0.34384	-0.06226	-0.25751	24.4	13113	100	48.1429596161513	1
2025-5-20 11:27:14.137	WT901BLE68(76B4B30218CB)	-0.057	0.507	0.82	-52.917	-6.592	5.005	34.77	3.07	-30.84	-16.442	-27.667	-56.558	0.90082	0.34384	-0.06226	-0.25751	24.4	13113	100	48.1429596161513	1
2025-5-20 11:27:14.137	WT901BLE68(76B4B30218CB)	-0.057	0.507	0.82	-52.917	-6.592	5.005	34.51	3.03	-30.87	-16.442	-27.667	-56.558	0.90082	0.34384	-0.06226	-0.25751	24.4	13113	100	48.1429596161513	1
2025-5-20 11:27:14.137	WT901BLE68(76B4B30218CB)	-0.053	0.507	0.82	-52.917	-6.592	5.005	34.25	3.0	-30.9	-16.442	-27.667	-56.558	0.90082	0.34384	-0.06226	-0.25751	24.4	13113	100	48.1429596161513	1
2025-5-20 11:27:14.137	WT901BLE68(76B4B30218CB)	-0.053	0.485	0.846	-52.551	-6.287	5.798	34.0	2.96	-30.93	-16.442	-27.667	-56.558	0.90082	0.34384	-0.06226	-0.25751	24.4	13113	100	48.1429596161513	1
2025-5-20 11:27:14.168	WT901BLE68(76B4B30218CB)	-0.053	0.485	0.846	-52.551	-6.287	5.798	33.74	2.92	-30.95	-16.442	-27.667	-56.558	0.90082	0.34384	-0.06226	-0.25751	24.4	13113	100	48.1429596161513	1
2025-5-20 11:27:14.168	WT901BLE68(76B4B30218CB)	-0.053	0.485	0.846	-52.551	-6.287	5.798	33.49	2.88	-30.98	-16.442	-27.667	-56.558	0.90082	0.34384	-0.06226	-0.25751	24.4	13113	100	48.1429596161513	1
2025-5-20 11:27:14.168	WT901BLE68(76B4B30218CB)	-0.051	0.485	0.846	-52.551	-6.287	5.798	33.23	2.84	-31.01	-16.442	-27.667	-56.558	0.90082	0.34384	-0.06226	-0.25751	24.4	13113	100	48.1429596161513	1
2025-5-20 11:27:14.168	WT901BLE68(76B4B30218CB)	-0.051	0.467	0.866	-52.795	-4.944	7.202	32.98	2.81	-31.03	-16.442	-27.667	-56.558	0.90082	0.34384	-0.06226	-0.25751	24.4	13113	100	48.1429596161513	1
2025-5-20 11:27:14.168	WT901BLE68(76B4B30218CB)	-0.051	0.467	0.866	-52.795	-4.944	7.202	32.72	2.77	-31.05	-16.442	-27.667	-56.558	0.90082	0.34384	-0.06226	-0.25751	24.4	13113	100	48.1429596161513	1
2025-5-20 11:27:14.168	WT901BLE68(76B4B30218CB)	-0.051	0.467	0.866	-52.795	-4.944	7.202	32.46	2.73	-31.06	-16.442	-27.667	-56.558	0.90082	0.34384	-0.06226	-0.25751	24.4	13113	100	48.1429596161513	1
2025-5-20 11:27:14.168	WT901BLE68(76B4B30218CB)	-0.063	0.467	0.866	-52.795	-4.944	7.202	32.21	2.69	-31.08	-16.442	-27.667	-56.558	0.90082	0.34384	-0.06226	-0.25751	24.4	13113	100	48.1429596161513	1
2025-5-20 11:27:14.168	WT901BLE68(76B4B30218CB)	-0.063	0.457	0.881	-52.49	-4.883	7.141	31.95	2.66	-31.1	-16.442	-27.667	-56.558	0.90082	0.34384	-0.06226	-0.25751	24.4	13113	100	48.1429596161513	1
2025-5-20 11:27:14.228	WT901BLE68(76B4B30218CB)	-0.063	0.457	0.881	-52.49	-4.883	7.141	31.69	2.62	-31.12	-16.442	-27.667	-56.558	0.90082	0.34384	-0.06226	-0.25751	24.4	13113	100	48.1429596161513	1
2025-5-20 11:27:14.228	WT901BLE68(76B4B30218CB)	-0.063	0.457	0.881	-52.49	-4.883	7.141	31.44	2.59	-31.14	-16.442	-27.667	-56.558	0.90082	0.34384	-0.06226	-0.25751	24.4	13113	100	48.1429596161513	1
2025-5-20 11:27:14.228	WT901BLE68(76B4B30218CB)	-0.053	0.457	0.881	-52.49	-4.883	7.141	31.18	2.55	-31.15	-16.442	-27.667	-56.558	0.90082	0.34384	-0.06226	-0.25751	24.4	13113	100	48.1429596161513	1
2025-5-20 11:27:14.228	WT901BLE68(76B4B30218CB)	-0.053	0.437	0.888	-51.453	-5.981	4.456	30.93	2.52	-31.19	-16.442	-27.667	-56.558	0.90082	0.34384	-0.06226	-0.25751	24.4	13113	100	48.1429596161513	1
2025-5-20 11:27:14.228	WT901BLE68(76B4B30218CB)	-0.053	0.437	0.888	-51.453	-5.981	4.456	30.67	2.48	-31.22	-16.442	-27.667	-56.558	0.90082	0.34384	-0.06226	-0.25751	24.4	13113	100	48.1429596161513	1
2025-5-20 11:27:14.228	WT901BLE68(76B4B30218CB)	-0.053	0.437	0.888	-51.453	-5.981	4.456	30.42	2.45	-31.25	-16.442	-27.667	-56.558	0.90082	0.34384	-0.06226	-0.25751	24.4	13113	100	48.1429596161513	1
2025-5-20 11:27:14.228	WT901BLE68(76B4B30218CB)	-0.05	0.437	0.888	-51.453	-5.981	4.456	30.17	2.42	-31.28	-16.442	-27.667	-56.558	0.90082	0.34384	-0.06226	-0.25751	24.4	13113	100	48.1429596161513	1
2025-5-20 11:27:14.228	WT901BLE68(76B4B30218CB)	-0.05	0.416	0.883	-50.903	-6.958	3.784	29.92	2.38	-31.32	-17.0	-11.325	-60.117	0.90082	0.34384	-0.06226	-0.25751	24.4	13113	100	48.1429596161513	1
2025-5-20 11:27:14.258	WT901BLE68(76B4B30218CB)	-0.05	0.416	0.883	-50.903	-6.958	3.784	29.67	2.35	-31.36	-17.0	-11.325	-60.117	0.90082	0.34384	-0.06226	-0.25751	24.4	13113	100	48.1429596161513	1
2025-5-20 11:27:14.258	WT901BLE68(76B4B30218CB)	-0.05	0.416	0.883	-50.903	-6.958	3.784	29.42	2.31	-31.4	-17.0	-11.325	-60.117	0.90082	0.34384	-0.06226	-0.25751	24.4	13113	100	48.1429596161513	1
2025-5-20 11:27:14.258	WT901BLE68(76B4B30218CB)	-0.071	0.416	0.883	-50.903	-6.958	3.784	29.17	2.27	-31.44	-17.0	-11.325	-60.117	0.90082	0.34384	-0.06226	-0.25751	24.4	13113	100	48.1429596161513	1
2025-5-20 11:27:14.258	WT901BLE68(76B4B30218CB)	-0.071	0.413	0.89	-49.927	-6.897	3.235	28.92	2.24	-31.48	-17.0	-11.325	-60.117	0.90082	0.34384	-0.06226	-0.25751	24.4	13113	100	48.1429596161513	1
2025-5-20 11:27:14.258	WT901BLE68(76B4B30218CB)	-0.071	0.413	0.89	-49.927	-6.897	3.235	28.68	2.2	-31.53	-17.0	-11.325	-60.117	0.90082	0.34384	-0.06226	-0.25751	24.4	13113	100	48.1429596161513	1
2025-5-20 11:27:14.258	WT901BLE68(76B4B30218CB)	-0.071	0.413	0.89	-49.927	-6.897	3.235	28.43	2.17	-31.57	-17.0	-11.325	-60.117	0.90082	0.34384	-0.06226	-0.25751	24.4	13113	100	48.1429596161513	1
2025-5-20 11:27:14.258	WT901BLE68(76B4B30218CB)	-0.055	0.413	0.89	-49.927	-6.897	3.235	28.19	2.14	-31.61	-17.0	-11.325	-60.117	0.90082	0.34384	-0.06226	-0.25751	24.4	13113	100	48.1429596161513	1
2025-5-20 11:27:14.258	WT901BLE68(76B4B30218CB)	-0.055	0.379	0.915	-49.683	-8.179	2.014	27.94	2.1	-31.67	-17.0	-11.325	-60.117	0.90082	0.34384	-0.06226	-0.25751	24.4	13113	100	48.1429596161513	1
2025-5-20 11:27:14.288	WT901BLE68(76B4B30218CB)	-0.055	0.379	0.915	-49.683	-8.179	2.014	27.7	2.07	-31.72	-17.0	-11.325	-60.117	0.90082	0.34384	-0.06226	-0.25751	24.4	13113	100	48.1429596161513	1
2025-5-20 11:27:14.288	WT901BLE68(76B4B30218CB)	-0.027	0.379	0.915	-49.683	-8.179	2.014	27.45	2.03	-31.77	-17.0	-11.325	-60.117	0.90082	0.34384	-0.06226	-0.25751	24.4	13113	100	48.1429596161513	1
2025-5-20 11:27:14.288	WT901BLE68(76B4B30218CB)	-0.027	0.361	0.929	-48.157	-10.071	2.808	27.21	1.98	-31.83	-17.0	-11.325	-60.117	0.90082	0.34384	-0.06226	-0.25751	24.4	13113	100	48.1429596161513	1
2025-5-20 11:27:14.288	WT901BLE68(76B4B30218CB)	-0.027	0.361	0.929	-48.157	-10.071	2.808	26.98	1.93	-31.88	-17.0	-11.325	-60.117	0.90082	0.34384	-0.06226	-0.25751	24.4	13113	100	48.1429596161513	1
2025-5-20 11:27:14.288	WT901BLE68(76B4B30218CB)	-0.027	0.361	0.929	-48.157	-10.071	2.808	26.74	1.88	-31.94	-17.0	-11.325	-60.117	0.90082	0.34384	-0.06226	-0.25751	24.4	13113	100	48.1429596161513	1
2025-5-20 11:27:14.289	WT901BLE68(76B4B30218CB)	-0.024	0.361	0.929	-48.157	-10.071	2.808	26.5	1.84	-31.99	-17.0	-11.325	-60.117	0.90082	0.34384	-0.06226	-0.25751	24.4	13113	100	48.1429596161513	1
2025-5-20 11:27:14.289	WT901BLE68(76B4B30218CB)	-0.024	0.366	0.948	-46.814	-10.01	4.211	26.26	1.79	-32.04	-17.0	-11.325	-60.117	0.90082	0.34384	-0.06226	-0.25751	24.4	13113	100	48.1429596161513	1
2025-5-20 11:27:14.289	WT901BLE68(76B4B30218CB)	-0.024	0.366	0.948	-46.814	-10.01	4.211	26.03	1.74	-32.09	-17.0	-11.325	-60.117	0.90082	0.34384	-0.06226	-0.25751	24.4	13113	100	48.1429596161513	1
2025-5-20 11:27:14.355	WT901BLE68(76B4B30218CB)	-0.024	0.366	0.948	-46.814	-10.01	4.211	25.8	1.69	-32.14	-17.0	-11.325	-60.117	0.90082	0.34384	-0.06226	-0.25751	24.4	13113	100	48.1429596161513	1
2025-5-20 11:27:14.355	WT901BLE68(76B4B30218CB)	-0.031	0.366	0.948	-46.814	-10.01	4.211	25.57	1.64	-32.19	-17.0	-11.325	-60.117	0.90082	0.34384	-0.06226	-0.25751	24.4	13113	100	48.1429596161513	1
2025-5-20 11:27:14.355	WT901BLE68(76B4B30218CB)	-0.031	0.349	0.965	-45.837	-8.728	4.333	25.34	1.59	-32.23	-17.0	-11.325	-60.117	0.90082	0.34384	-0.06226	-0.25751	24.4	13113	100	48.1429596161513	1
2025-5-20 11:27:14.355	WT901BLE68(76B4B30218CB)	-0.031	0.349	0.965	-45.837	-8.728	4.333	25.11	1.54	-32.28	-17.0	-11.325	-60.117	0.90082	0.34384	-0.06226	-0.25751	24.4	13113	100	48.1429596161513	1
2025-5-20 11:27:14.355	WT901BLE68(76B4B30218CB)	-0.031	0.349	0.965	-45.837	-8.728	4.333	24.88	1.5	-32.33	-17.0	-11.325	-60.117	0.90082	0.34384	-0.06226	-0.25751	24.4	13113	100	48.1429596161513	1
2025-5-20 11:27:14.355	WT901BLE68(76B4B30218CB)	-0.037	0.349	0.965	-45.837	-8.728	4.333	24.65	1.46	-32.38	-17.0	-11.325	-60.117	0.90082	0.34384	-0.06226	-0.25751	24.4	13113	100	48.1429596161513	1
2025-5-20 11:27:14.356	WT901BLE68(76B4B30218CB)	-0.037	0.333	0.975	-44.861	-8.85	1.953	24.43	1.42	-32.44	-17.0	-11.325	-60.117	0.90082	0.34384	-0.06226	-0.25751	24.4	13113	100	48.1429596161513	1
2025-5-20 11:27:14.356	WT901BLE68(76B4B30218CB)	-0.037	0.333	0.975	-44.861	-8.85	1.953	24.21	1.37	-32.5	-17.0	-11.325	-60.117	0.90082	0.34384	-0.06226	-0.25751	24.4	13113	100	48.1429596161513	1
2025-5-20 11:27:14.378	WT901BLE68(76B4B30218CB)	-0.037	0.333	0.975	-44.861	-8.85	1.953	23.98	1.33	-32.57	-17.0	-11.325	-60.117	0.90082	0.34384	-0.06226	-0.25751	24.4	13113	100	48.1429596161513	1
2025-5-20 11:27:14.378	WT901BLE68(76B4B30218CB)	-0.027	0.333	0.975	-44.861	-8.85	1.953	23.76	1.29	-32.63	-17.0	-11.325	-60.117	0.90082	0.34384	-0.06226	-0.25751	24.4	13113	100	48.1429596161513	1
2025-5-20 11:27:14.378	WT901BLE68(76B4B30218CB)	-0.027	0.307	0.974	-43.579	-10.071	0.916	23.54	1.25	-32.7	-17.0	-11.325	-60.117	0.90082	0.34384	-0.06226	-0.25751	24.4	13113	100	48.1429596161513	1
2025-5-20 11:27:14.378	WT901BLE68(76B4B30218CB)	-0.027	0.307	0.974	-43.579	-10.071	0.916	23.32	1.2	-32.77	-17.0	-11.325	-60.117	0.90082	0.34384	-0.06226	-0.25751	24.4	13113	100	48.1429596161513	1
2025-5-20 11:27:14.378	WT901BLE68(76B4B30218CB)	-0.027	0.307	0.974	-43.579	-10.071	0.916	23.1	1.16	-32.84	-17.0	-11.325	-60.117	0.90082	0.34384	-0.06226	-0.25751	24.4	13113	100	48.1429596161513	1
2025-5-20 11:27:14.378	WT901BLE68(76B4B30218CB)	-0.024	0.307	0.974	-43.579	-10.071	0.916	22.88	1.12	-32.91	-17.0	-11.325	-60.117	0.90082	0.34384	-0.06226	-0.25751	24.4	13113	100	48.1429596161513	1
2025-5-20 11:27:14.378	WT901BLE68(76B4B30218CB)	-0.024	0.295	0.985	-41.748	-11.23	1.038	22.68	1.07	-32.98	-17.0	-11.325	-60.117	0.90082	0.34384	-0.06226	-0.25751	24.4	13113	100	48.1429596161513	1
2025-5-20 11:27:14.378	WT901BLE68(76B4B30218CB)	-0.024	0.295	0.985	-41.748	-11.23	1.038	22.46	1.02	-33.05	-17.0	-11.325	-60.117	0.90082	0.34384	-0.06226	-0.25751	24.4	13113	100	48.1429596161513	1
2025-5-20 11:27:14.437	WT901BLE68(76B4B30218CB)	-0.024	0.295	0.985	-41.748	-11.23	1.038	22.25	0.97	-33.12	-17.0	-11.325	-60.117	0.90082	0.34384	-0.06226	-0.25751	24.4	13113	100	48.1429596161513	1
2025-5-20 11:27:14.438	WT901BLE68(76B4B30218CB)	-0.003	0.295	0.985	-41.748	-11.23	1.038	22.04	0.92	-33.2	-17.0	-11.325	-60.117	0.90082	0.34384	-0.06226	-0.25751	24.4	13113	100	48.1429596161513	1
2025-5-20 11:27:14.438	WT901BLE68(76B4B30218CB)	-0.003	0.287	1.005	-40.161	-9.399	2.686	21.84	0.87	-33.26	-17.0	-11.325	-60.117	0.90082	0.34384	-0.06226	-0.25751	24.4	13113	100	48.1429596161513	1
2025-5-20 11:27:14.438	WT901BLE68(76B4B30218CB)	-0.003	0.287	1.005	-40.161	-9.399	2.686	21.64	0.83	-33.32	-17.0	-11.325	-60.117	0.90082	0.34384	-0.06226	-0.25751	24.4	13113	100	48.1429596161513	1
2025-5-20 11:27:14.438	WT901BLE68(76B4B30218CB)	-0.003	0.287	1.005	-40.161	-9.399	2.686	21.43	0.79	-33.38	-17.0	-11.325	-60.117	0.90082	0.34384	-0.06226	-0.25751	24.4	13113	100	48.1429596161513	1
2025-5-20 11:27:14.438	WT901BLE68(76B4B30218CB)	0.001	0.287	1.005	-40.161	-9.399	2.686	21.23	0.74	-33.44	-17.0	-11.325	-60.117	0.90082	0.34384	-0.06226	-0.25751	24.4	13113	100	48.1429596161513	1
2025-5-20 11:27:14.438	WT901BLE68(76B4B30218CB)	0.001	0.287	1.016	-37.415	-7.08	3.357	21.04	0.7	-33.5	-17.0	-11.325	-60.117	0.90082	0.34384	-0.06226	-0.25751	24.4	13113	100	48.1429596161513	1
2025-5-20 11:27:14.438	WT901BLE68(76B4B30218CB)	0.001	0.287	1.016	-37.415	-7.08	3.357	20.85	0.66	-33.56	-17.0	-11.325	-60.117	0.90082	0.34384	-0.06226	-0.25751	24.4	13113	100	48.1429596161513	1
2025-5-20 11:27:14.468	WT901BLE68(76B4B30218CB)	0.001	0.287	1.016	-37.415	-7.08	3.357	20.67	0.63	-33.61	-17.0	-11.325	-60.117	0.94141	0.17325	-0.04663	-0.2854	24.4	13113	100	52.535443154357814	1
2025-5-20 11:27:14.468	WT901BLE68(76B4B30218CB)	-0.002	0.287	1.016	-37.415	-7.08	3.357	20.47	0.59	-33.67	-17.0	-11.325	-60.117	0.94141	0.17325	-0.04663	-0.2854	24.4	13113	100	52.535443154357814	1
2025-5-20 11:27:14.468	WT901BLE68(76B4B30218CB)	-0.002	0.263	1.02	-34.485	-7.996	2.075	20.3	0.55	-33.74	-17.0	-11.325	-60.117	0.94141	0.17325	-0.04663	-0.2854	24.4	13113	100	52.535443154357814	1
2025-5-20 11:27:14.468	WT901BLE68(76B4B30218CB)	-0.002	0.263	1.02	-34.485	-7.996	2.075	20.12	0.52	-33.8	-17.0	-11.325	-60.117	0.94141	0.17325	-0.04663	-0.2854	24.4	13113	100	52.535443154357814	1
2025-5-20 11:27:14.468	WT901BLE68(76B4B30218CB)	-0.002	0.263	1.02	-34.485	-7.996	2.075	19.95	0.48	-33.87	-17.0	-11.325	-60.117	0.94141	0.17325	-0.04663	-0.2854	24.4	13113	100	52.535443154357814	1
2025-5-20 11:27:14.468	WT901BLE68(76B4B30218CB)	-0.009	0.263	1.02	-34.485	-7.996	2.075	19.77	0.44	-33.93	-17.0	-11.325	-60.117	0.94141	0.17325	-0.04663	-0.2854	24.4	13113	100	52.535443154357814	1
2025-5-20 11:27:14.468	WT901BLE68(76B4B30218CB)	-0.009	0.252	1.02	-33.203	-8.301	2.014	19.6	0.4	-33.99	-17.0	-11.325	-60.117	0.94141	0.17325	-0.04663	-0.2854	24.4	13113	100	52.535443154357814	1
2025-5-20 11:27:14.468	WT901BLE68(76B4B30218CB)	-0.009	0.252	1.02	-33.203	-8.301	2.014	19.43	0.36	-34.06	-17.0	-11.325	-60.117	0.94141	0.17325	-0.04663	-0.2854	24.4	13113	100	52.535443154357814	1
2025-5-20 11:27:14.498	WT901BLE68(76B4B30218CB)	-0.009	0.252	1.02	-33.203	-8.301	2.014	19.26	0.32	-34.12	-17.0	-11.325	-60.117	0.94141	0.17325	-0.04663	-0.2854	24.4	13113	100	52.535443154357814	1
2025-5-20 11:27:14.498	WT901BLE68(76B4B30218CB)	-0.014	0.252	1.02	-33.203	-8.301	2.014	19.09	0.29	-34.18	-17.0	-11.325	-60.117	0.94141	0.17325	-0.04663	-0.2854	24.4	13113	100	45.24342825958576	1
2025-5-20 11:27:14.498	WT901BLE68(76B4B30218CB)	-0.014	0.254	1.025	-31.555	-8.484	2.197	18.93	0.24	-34.25	-17.0	-11.325	-60.117	0.94141	0.17325	-0.04663	-0.2854	24.4	13113	100	45.24342825958576	1
2025-5-20 11:27:14.498	WT901BLE68(76B4B30218CB)	-0.014	0.254	1.025	-31.555	-8.484	2.197	18.77	0.2	-34.32	-17.0	-11.325	-60.117	0.94141	0.17325	-0.04663	-0.2854	24.4	13113	100	45.24342825958576	1
2025-5-20 11:27:14.498	WT901BLE68(76B4B30218CB)	-0.014	0.254	1.025	-31.555	-8.484	2.197	18.61	0.16	-34.38	-17.0	-11.325	-60.117	0.94141	0.17325	-0.04663	-0.2854	24.4	13113	100	45.24342825958576	1
2025-5-20 11:27:14.498	WT901BLE68(76B4B30218CB)	-0.007	0.254	1.025	-31.555	-8.484	2.197	18.45	0.12	-34.44	-17.0	-11.325	-60.117	0.94141	0.17325	-0.04663	-0.2854	24.4	13113	100	45.24342825958576	1
2025-5-20 11:27:14.498	WT901BLE68(76B4B30218CB)	-0.007	0.241	1.027	-28.809	-9.155	1.465	18.3	0.08	-34.51	-17.0	-11.325	-60.117	0.94141	0.17325	-0.04663	-0.2854	24.4	13113	100	45.24342825958576	1
2025-5-20 11:27:14.498	WT901BLE68(76B4B30218CB)	-0.007	0.241	1.027	-28.809	-9.155	1.465	18.15	0.04	-34.58	-17.0	-11.325	-60.117	0.94141	0.17325	-0.04663	-0.2854	24.4	13113	100	45.24342825958576	1
2025-5-20 11:27:14.559	WT901BLE68(76B4B30218CB)	-0.007	0.241	1.027	-28.809	-9.155	1.465	18.0	0.0	-34.65	-17.0	-11.325	-60.117	0.94141	0.17325	-0.04663	-0.2854	24.4	13113	100	45.24342825958576	1
2025-5-20 11:27:14.559	WT901BLE68(76B4B30218CB)	0.002	0.241	1.027	-28.809	-9.155	1.465	17.85	-0.04	-34.72	-17.0	-11.325	-60.117	0.94141	0.17325	-0.04663	-0.2854	24.4	13113	100	45.24342825958576	1
2025-5-20 11:27:14.559	WT901BLE68(76B4B30218CB)	0.002	0.237	1.022	-26.001	-9.827	0.366	17.72	-0.08	-34.79	-17.0	-11.325	-60.117	0.94141	0.17325	-0.04663	-0.2854	24.4	13113	100	45.24342825958576	1
2025-5-20 11:27:14.559	WT901BLE68(76B4B30218CB)	0.002	0.237	1.022	-26.001	-9.827	0.366	17.58	-0.13	-34.87	-17.0	-11.325	-60.117	0.94141	0.17325	-0.04663	-0.2854	24.4	13113	100	45.24342825958576	1
2025-5-20 11:27:14.559	WT901BLE68(76B4B30218CB)	0.002	0.237	1.022	-26.001	-9.827	0.366	17.45	-0.17	-34.95	-17.0	-11.325	-60.117	0.94141	0.17325	-0.04663	-0.2854	24.4	13113	100	45.24342825958576	1
2025-5-20 11:27:14.559	WT901BLE68(76B4B30218CB)	-0.002	0.237	1.022	-26.001	-9.827	0.366	17.31	-0.21	-35.02	-17.0	-11.325	-60.117	0.94141	0.17325	-0.04663	-0.2854	24.4	13113	100	45.24342825958576	1
2025-5-20 11:27:14.559	WT901BLE68(76B4B30218CB)	-0.002	0.241	1.025	-23.193	-8.423	0.366	17.19	-0.25	-35.09	-17.0	-11.325	-60.117	0.94141	0.17325	-0.04663	-0.2854	24.4	13113	100	45.24342825958576	1
2025-5-20 11:27:14.559	WT901BLE68(76B4B30218CB)	-0.002	0.241	1.025	-23.193	-8.423	0.366	17.07	-0.29	-35.16	-17.0	-11.325	-60.117	0.94141	0.17325	-0.04663	-0.2854	24.4	13113	100	45.24342825958576	1
2025-5-20 11:27:14.590	WT901BLE68(76B4B30218CB)	-0.002	0.241	1.025	-23.193	-8.423	0.366	16.95	-0.32	-35.23	-17.0	-11.325	-60.117	0.94141	0.17325	-0.04663	-0.2854	24.4	13113	100	45.24342825958576	1
2025-5-20 11:27:14.590	WT901BLE68(76B4B30218CB)	-0.001	0.241	1.025	-23.193	-8.423	0.366	16.83	-0.36	-35.3	-17.0	-11.325	-60.117	0.94141	0.17325	-0.04663	-0.2854	24.4	13113	100	45.24342825958576	1
2025-5-20 11:27:14.590	WT901BLE68(76B4B30218CB)	-0.001	0.226	1.03	-20.508	-7.69	0.0	16.73	-0.4	-35.38	-17.0	-11.325	-60.117	0.94141	0.17325	-0.04663	-0.2854	24.4	13113	100	45.24342825958576	1
2025-5-20 11:27:14.590	WT901BLE68(76B4B30218CB)	-0.001	0.226	1.03	-20.508	-7.69	0.0	16.62	-0.43	-35.45	-17.0	-11.325	-60.117	0.94141	0.17325	-0.04663	-0.2854	24.4	13113	100	45.24342825958576	1
2025-5-20 11:27:14.590	WT901BLE68(76B4B30218CB)	-0.001	0.226	1.03	-20.508	-7.69	0.0	16.51	-0.46	-35.52	-17.0	-11.325	-60.117	0.94141	0.17325	-0.04663	-0.2854	24.4	13113	100	45.24342825958576	1
2025-5-20 11:27:14.590	WT901BLE68(76B4B30218CB)	0.003	0.226	1.03	-20.508	-7.69	0.0	16.4	-0.49	-35.6	-17.0	-11.325	-60.117	0.94141	0.17325	-0.04663	-0.2854	24.4	13113	100	45.24342825958576	1
2025-5-20 11:27:14.590	WT901BLE68(76B4B30218CB)	0.003	0.223	1.03	-18.433	-7.996	0.671	16.31	-0.53	-35.67	-17.0	-11.325	-60.117	0.94141	0.17325	-0.04663	-0.2854	24.4	13113	100	45.24342825958576	1
2025-5-20 11:27:14.590	WT901BLE68(76B4B30218CB)	0.003	0.223	1.03	-18.433	-7.996	0.671	16.21	-0.57	-35.74	-17.0	-11.325	-60.117	0.94141	0.17325	-0.04663	-0.2854	24.4	13113	100	45.24342825958576	1
2025-5-20 11:27:14.619	WT901BLE68(76B4B30218CB)	0.003	0.223	1.03	-18.433	-7.996	0.671	16.11	-0.6	-35.82	-17.0	-11.325	-60.117	0.94141	0.17325	-0.04663	-0.2854	24.4	13113	100	45.24342825958576	1
2025-5-20 11:27:14.619	WT901BLE68(76B4B30218CB)	0.013	0.223	1.03	-18.433	-7.996	0.671	16.02	-0.64	-35.89	-17.0	-11.325	-60.117	0.94141	0.17325	-0.04663	-0.2854	24.4	13113	100	45.24342825958576	1
2025-5-20 11:27:14.619	WT901BLE68(76B4B30218CB)	0.013	0.231	1.025	-16.174	-7.874	0.244	15.93	-0.67	-35.96	-17.0	-11.325	-60.117	0.94141	0.17325	-0.04663	-0.2854	24.4	13113	100	45.24342825958576	1
2025-5-20 11:27:14.619	WT901BLE68(76B4B30218CB)	0.013	0.231	1.025	-16.174	-7.874	0.244	15.85	-0.7	-36.03	-17.0	-11.325	-60.117	0.94141	0.17325	-0.04663	-0.2854	24.4	13113	100	45.24342825958576	1
2025-5-20 11:27:14.619	WT901BLE68(76B4B30218CB)	0.013	0.231	1.025	-16.174	-7.874	0.244	15.76	-0.74	-36.1	-18.942	-1.75	-57.8	0.94141	0.17325	-0.04663	-0.2854	24.4	13113	100	45.24342825958576	1
2025-5-20 11:27:14.619	WT901BLE68(76B4B30218CB)	0.017	0.231	1.025	-16.174	-7.874	0.244	15.68	-0.77	-36.18	-18.942	-1.75	-57.8	0.94141	0.17325	-0.04663	-0.2854	24.4	13113	100	45.24342825958576	1
2025-5-20 11:27:14.619	WT901BLE68(76B4B30218CB)	0.017	0.233	1.023	-14.099	-6.653	0.122	15.6	-0.8	-36.25	-18.942	-1.75	-57.8	0.94141	0.17325	-0.04663	-0.2854	24.4	13113	100	45.24342825958576	1
2025-5-20 11:27:14.619	WT901BLE68(76B4B30218CB)	0.017	0.233	1.023	-14.099	-6.653	0.122	15.52	-0.83	-36.32	-18.942	-1.75	-57.8	0.94141	0.17325	-0.04663	-0.2854	24.4	13113	100	45.24342825958576	1
2025-5-20 11:27:14.679	WT901BLE68(76B4B30218CB)	0.017	0.233	1.023	-14.099	-6.653	0.122	15.45	-0.86	-36.39	-18.942	-1.75	-57.8	0.94141	0.17325	-0.04663	-0.2854	24.4	13113	100	45.24342825958576	1
2025-5-20 11:27:14.680	WT901BLE68(76B4B30218CB)	0.012	0.233	1.023	-14.099	-6.653	0.122	15.38	-0.89	-36.46	-18.942	-1.75	-57.8	0.94141	0.17325	-0.04663	-0.2854	24.4	13113	100	45.24342825958576	1
2025-5-20 11:27:14.680	WT901BLE68(76B4B30218CB)	0.012	0.226	1.017	-11.902	-6.47	-1.099	15.31	-0.92	-36.55	-18.942	-1.75	-57.8	0.94141	0.17325	-0.04663	-0.2854	24.4	13113	100	45.24342825958576	1
2025-5-20 11:27:14.680	WT901BLE68(76B4B30218CB)	0.012	0.226	1.017	-11.902	-6.47	-1.099	15.25	-0.94	-36.62	-18.942	-1.75	-57.8	0.94141	0.17325	-0.04663	-0.2854	24.4	13113	100	45.24342825958576	1
2025-5-20 11:27:14.680	WT901BLE68(76B4B30218CB)	0.012	0.226	1.017	-11.902	-6.47	-1.099	15.18	-0.97	-36.7	-18.942	-1.75	-57.8	0.94141	0.17325	-0.04663	-0.2854	24.4	13113	100	45.24342825958576	1
2025-5-20 11:27:14.680	WT901BLE68(76B4B30218CB)	0.019	0.226	1.017	-11.902	-6.47	-1.099	15.12	-0.99	-36.78	-18.942	-1.75	-57.8	0.94141	0.17325	-0.04663	-0.2854	24.4	13113	100	45.24342825958576	1
2025-5-20 11:27:14.680	WT901BLE68(76B4B30218CB)	0.019	0.212	1.015	-10.62	-6.226	-1.282	15.06	-1.02	-36.86	-18.942	-1.75	-57.8	0.94141	0.17325	-0.04663	-0.2854	24.4	13113	100	45.24342825958576	1
2025-5-20 11:27:14.680	WT901BLE68(76B4B30218CB)	0.019	0.212	1.015	-10.62	-6.226	-1.282	15.01	-1.04	-36.94	-18.942	-1.75	-57.8	0.94141	0.17325	-0.04663	-0.2854	24.4	13113	100	45.24342825958576	1
2025-5-20 11:27:14.710	WT901BLE68(76B4B30218CB)	0.019	0.212	1.015	-10.62	-6.226	-1.282	14.95	-1.07	-37.02	-18.942	-1.75	-57.8	0.94141	0.17325	-0.04663	-0.2854	24.4	13113	100	45.24342825958576	1
2025-5-20 11:27:14.710	WT901BLE68(76B4B30218CB)	0.02	0.212	1.015	-10.62	-6.226	-1.282	14.89	-1.09	-37.1	-18.942	-1.75	-57.8	0.94141	0.17325	-0.04663	-0.2854	24.4	13113	100	45.24342825958576	1
2025-5-20 11:27:14.710	WT901BLE68(76B4B30218CB)	0.02	0.214	1.013	-11.047	-5.493	-0.366	14.83	-1.12	-37.17	-18.942	-1.75	-57.8	0.94141	0.17325	-0.04663	-0.2854	24.4	13113	100	45.24342825958576	1
2025-5-20 11:27:14.710	WT901BLE68(76B4B30218CB)	0.02	0.214	1.013	-11.047	-5.493	-0.366	14.77	-1.14	-37.23	-18.942	-1.75	-57.8	0.94141	0.17325	-0.04663	-0.2854	24.4	13113	100	45.24342825958576	1
2025-5-20 11:27:14.710	WT901BLE68(76B4B30218CB)	0.02	0.214	1.013	-11.047	-5.493	-0.366	14.71	-1.16	-37.3	-18.942	-1.75	-57.8	0.94141	0.17325	-0.04663	-0.2854	24.4	13113	100	45.24342825958576	1
2025-5-20 11:27:14.710	WT901BLE68(76B4B30218CB)	0.026	0.214	1.013	-11.047	-5.493	-0.366	14.65	-1.19	-37.38	-18.942	-1.75	-57.8	0.94141	0.17325	-0.04663	-0.2854	24.4	13113	100	45.24342825958576	1
2025-5-20 11:27:14.710	WT901BLE68(76B4B30218CB)	0.026	0.22	1.021	-10.986	-4.944	0.244	14.6	-1.21	-37.44	-18.942	-1.75	-57.8	0.94141	0.17325	-0.04663	-0.2854	24.4	13113	100	45.24342825958576	1
2025-5-20 11:27:14.710	WT901BLE68(76B4B30218CB)	0.026	0.22	1.021	-10.986	-4.944	0.244	14.53	-1.23	-37.51	-18.942	-1.75	-57.8	0.94141	0.17325	-0.04663	-0.2854	24.4	13113	100	45.24342825958576	1
2025-5-20 11:27:14.740	WT901BLE68(76B4B30218CB)	0.026	0.22	1.021	-10.986	-4.944	0.244	14.47	-1.25	-37.57	-18.942	-1.75	-57.8	0.94141	0.17325	-0.04663	-0.2854	24.4	13113	100	45.24342825958576	1
2025-5-20 11:27:14.740	WT901BLE68(76B4B30218CB)	0.019	0.22	1.021	-10.986	-4.944	0.244	14.41	-1.27	-37.64	-18.942	-1.75	-57.8	0.94141	0.17325	-0.04663	-0.2854	24.4	13113	100	45.24342825958576	1
2025-5-20 11:27:14.740	WT901BLE68(76B4B30218CB)	0.019	0.216	1.021	-10.315	-5.676	0.488	14.36	-1.3	-37.7	-18.942	-1.75	-57.8	0.94141	0.17325	-0.04663	-0.2854	24.4	13113	100	45.24342825958576	1
2025-5-20 11:27:14.740	WT901BLE68(76B4B30218CB)	0.019	0.216	1.021	-10.315	-5.676	0.488	14.3	-1.32	-37.77	-18.942	-1.75	-57.8	0.94141	0.17325	-0.04663	-0.2854	24.4	13113	100	45.24342825958576	1
2025-5-20 11:27:14.740	WT901BLE68(76B4B30218CB)	0.019	0.216	1.021	-10.315	-5.676	0.488	14.25	-1.35	-37.83	-18.942	-1.75	-57.8	0.94141	0.17325	-0.04663	-0.2854	24.4	13113	100	45.24342825958576	1
2025-5-20 11:27:14.740	WT901BLE68(76B4B30218CB)	0.028	0.216	1.021	-10.315	-5.676	0.488	14.19	-1.37	-37.89	-18.942	-1.75	-57.8	0.94141	0.17325	-0.04663	-0.2854	24.4	13113	100	45.24342825958576	1
2025-5-20 11:27:14.740	WT901BLE68(76B4B30218CB)	0.028	0.203	1.018	-10.01	-6.165	0.61	14.14	-1.4	-37.96	-18.942	-1.75	-57.8	0.94141	0.17325	-0.04663	-0.2854	24.4	13113	100	45.24342825958576	1
2025-5-20 11:27:14.740	WT901BLE68(76B4B30218CB)	0.028	0.203	1.018	-10.01	-6.165	0.61	14.08	-1.43	-38.02	-18.942	-1.75	-57.8	0.94141	0.17325	-0.04663	-0.2854	24.4	13113	100	45.24342825958576	1
2025-5-20 11:27:14.799	WT901BLE68(76B4B30218CB)	0.028	0.203	1.018	-10.01	-6.165	0.61	14.03	-1.46	-38.09	-18.942	-1.75	-57.8	0.94141	0.17325	-0.04663	-0.2854	24.4	13113	100	45.24342825958576	1
2025-5-20 11:27:14.800	WT901BLE68(76B4B30218CB)	0.029	0.203	1.018	-10.01	-6.165	0.61	13.97	-1.49	-38.15	-18.942	-1.75	-57.8	0.94141	0.17325	-0.04663	-0.2854	24.4	13113	100	45.24342825958576	1
2025-5-20 11:27:14.800	WT901BLE68(76B4B30218CB)	0.029	0.201	1.012	-9.705	-6.165	0.427	13.93	-1.52	-38.22	-18.942	-1.75	-57.8	0.94141	0.17325	-0.04663	-0.2854	24.4	13113	100	45.24342825958576	1
2025-5-20 11:27:14.800	WT901BLE68(76B4B30218CB)	0.029	0.201	1.012	-9.705	-6.165	0.427	13.87	-1.54	-38.29	-18.942	-1.75	-57.8	0.94141	0.17325	-0.04663	-0.2854	24.4	13113	100	45.24342825958576	1
2025-5-20 11:27:14.800	WT901BLE68(76B4B30218CB)	0.029	0.201	1.012	-9.705	-6.165	0.427	13.82	-1.57	-38.35	-18.942	-1.75	-57.8	0.94141	0.17325	-0.04663	-0.2854	24.4	13113	100	45.24342825958576	1
2025-5-20 11:27:14.800	WT901BLE68(76B4B30218CB)	0.029	0.21	1.013	-8.667	-5.615	0.244	13.77	-1.59	-38.42	-18.942	-1.75	-57.8	0.94141	0.17325	-0.04663	-0.2854	24.4	13113	100	45.24342825958576	1
2025-5-20 11:27:14.800	WT901BLE68(76B4B30218CB)	0.029	0.21	1.013	-8.667	-5.615	0.244	13.72	-1.62	-38.49	-18.942	-1.75	-57.8	0.94141	0.17325	-0.04663	-0.2854	24.4	13113	100	45.24342825958576	1
2025-5-20 11:27:14.800	WT901BLE68(76B4B30218CB)	0.029	0.21	1.013	-8.667	-5.615	0.244	13.67	-1.64	-38.55	-18.942	-1.75	-57.8	0.94141	0.17325	-0.04663	-0.2854	24.4	13113	100	45.24342825958576	1
2025-5-20 11:27:14.827	WT901BLE68(76B4B30218CB)	0.033	0.21	1.013	-8.667	-5.615	0.244	13.63	-1.67	-38.61	-18.942	-1.75	-57.8	0.94141	0.17325	-0.04663	-0.2854	24.4	13113	100	45.24342825958576	1
2025-5-20 11:27:14.827	WT901BLE68(76B4B30218CB)	0.033	0.205	1.012	-7.446	-4.761	0.0	13.58	-1.69	-38.68	-18.942	-1.75	-57.8	0.94141	0.17325	-0.04663	-0.2854	24.4	13113	100	45.24342825958576	1
2025-5-20 11:27:14.827	WT901BLE68(76B4B30218CB)	0.033	0.205	1.012	-7.446	-4.761	0.0	13.55	-1.71	-38.74	-18.942	-1.75	-57.8	0.94141	0.17325	-0.04663	-0.2854	24.4	13113	100	45.24342825958576	1
2025-5-20 11:27:14.827	WT901BLE68(76B4B30218CB)	0.033	0.205	1.012	-7.446	-4.761	0.0	13.5	-1.73	-38.81	-18.942	-1.75	-57.8	0.94141	0.17325	-0.04663	-0.2854	24.4	13113	100	45.24342825958576	1
2025-5-20 11:27:14.827	WT901BLE68(76B4B30218CB)	0.034	0.205	1.012	-7.446	-4.761	0.0	13.46	-1.75	-38.87	-18.942	-1.75	-57.8	0.94141	0.17325	-0.04663	-0.2854	24.4	13113	100	45.24342825958576	1
2025-5-20 11:27:14.827	WT901BLE68(76B4B30218CB)	0.034	0.196	1.008	-6.409	-4.456	0.244	13.43	-1.77	-38.94	-18.942	-1.75	-57.8	0.94141	0.17325	-0.04663	-0.2854	24.4	13113	100	45.24342825958576	1
2025-5-20 11:27:14.827	WT901BLE68(76B4B30218CB)	0.034	0.196	1.008	-6.409	-4.456	0.244	13.39	-1.79	-39.0	-18.942	-1.75	-57.8	0.93665	0.10471	-0.05356	-0.32977	24.4	13113	100	45.10603311669654	1
2025-5-20 11:27:14.827	WT901BLE68(76B4B30218CB)	0.034	0.196	1.008	-6.409	-4.456	0.244	13.35	-1.81	-39.06	-18.942	-1.75	-57.8	0.93665	0.10471	-0.05356	-0.32977	24.4	13113	100	45.10603311669654	1
2025-5-20 11:27:14.859	WT901BLE68(76B4B30218CB)	0.026	0.196	1.008	-6.409	-4.456	0.244	13.32	-1.83	-39.12	-18.942	-1.75	-57.8	0.93665	0.10471	-0.05356	-0.32977	24.4	13113	100	45.10603311669654	1
2025-5-20 11:27:14.859	WT901BLE68(76B4B30218CB)	0.026	0.198	1.005	-6.042	-3.418	0.732	13.28	-1.85	-39.18	-18.942	-1.75	-57.8	0.93665	0.10471	-0.05356	-0.32977	24.4	13113	100	45.10603311669654	1
2025-5-20 11:27:14.859	WT901BLE68(76B4B30218CB)	0.026	0.198	1.005	-6.042	-3.418	0.732	13.25	-1.86	-39.24	-18.942	-1.75	-57.8	0.93665	0.10471	-0.05356	-0.32977	24.4	13113	100	45.10603311669654	1
2025-5-20 11:27:14.859	WT901BLE68(76B4B30218CB)	0.026	0.198	1.005	-6.042	-3.418	0.732	13.22	-1.88	-39.3	-18.942	-1.75	-57.8	0.93665	0.10471	-0.05356	-0.32977	24.4	13113	100	45.10603311669654	1
2025-5-20 11:27:14.859	WT901BLE68(76B4B30218CB)	0.024	0.198	1.005	-6.042	-3.418	0.732	13.18	-1.9	-39.35	-18.942	-1.75	-57.8	0.93665	0.10471	-0.05356	-0.32977	24.4	13113	100	45.10603311669654	1
2025-5-20 11:27:14.859	WT901BLE68(76B4B30218CB)	0.024	0.193	1.009	-5.676	-2.93	1.282	13.15	-1.91	-39.41	-18.942	-1.75	-57.8	0.93665	0.10471	-0.05356	-0.32977	24.4	13113	100	45.10603311669654	1
2025-5-20 11:27:14.859	WT901BLE68(76B4B30218CB)	0.024	0.193	1.009	-5.676	-2.93	1.282	13.12	-1.92	-39.46	-18.942	-1.75	-57.8	0.93665	0.10471	-0.05356	-0.32977	24.4	13113	100	45.10603311669654	1
2025-5-20 11:27:14.859	WT901BLE68(76B4B30218CB)	0.024	0.193	1.009	-5.676	-2.93	1.282	13.08	-1.93	-39.52	-18.942	-1.75	-57.8	0.93665	0.10471	-0.05356	-0.32977	24.4	13113	100	44.308416647859026	1
2025-5-20 11:27:14.919	WT901BLE68(76B4B30218CB)	0.034	0.193	1.009	-5.676	-2.93	1.282	13.05	-1.94	-39.57	-18.942	-1.75	-57.8	0.93665	0.10471	-0.05356	-0.32977	24.4	13113	100	44.308416647859026	1
2025-5-20 11:27:14.919	WT901BLE68(76B4B30218CB)	0.034	0.191	1.007	-5.188	-3.296	0.854	13.02	-1.96	-39.63	-18.942	-1.75	-57.8	0.93665	0.10471	-0.05356	-0.32977	24.4	13113	100	44.308416647859026	1
2025-5-20 11:27:14.919	WT901BLE68(76B4B30218CB)	0.034	0.191	1.007	-5.188	-3.296	0.854	12.99	-1.98	-39.68	-18.942	-1.75	-57.8	0.93665	0.10471	-0.05356	-0.32977	24.4	13113	100	44.308416647859026	1
2025-5-20 11:27:14.919	WT901BLE68(76B4B30218CB)	0.034	0.191	1.007	-5.188	-3.296	0.854	12.96	-1.99	-39.74	-18.942	-1.75	-57.8	0.93665	0.10471	-0.05356	-0.32977	24.4	13113	100	44.308416647859026	1
2025-5-20 11:27:14.920	WT901BLE68(76B4B30218CB)	0.034	0.191	1.007	-5.188	-3.296	0.854	12.93	-2.01	-39.8	-18.942	-1.75	-57.8	0.93665	0.10471	-0.05356	-0.32977	24.4	13113	100	44.308416647859026	1
2025-5-20 11:27:14.920	WT901BLE68(76B4B30218CB)	0.034	0.189	1.006	-4.639	-3.662	0.488	12.9	-2.02	-39.85	-18.942	-1.75	-57.8	0.93665	0.10471	-0.05356	-0.32977	24.4	13113	100	44.308416647859026	1
2025-5-20 11:27:14.920	WT901BLE68(76B4B30218CB)	0.034	0.189	1.006	-4.639	-3.662	0.488	12.88	-2.04	-39.91	-18.942	-1.75	-57.8	0.93665	0.10471	-0.05356	-0.32977	24.4	13113	100	44.308416647859026	1
2025-5-20 11:27:14.920	WT901BLE68(76B4B30218CB)	0.034	0.189	1.006	-4.639	-3.662	0.488	12.85	-2.05	-39.97	-18.942	-1.75	-57.8	0.93665	0.10471	-0.05356	-0.32977	24.4	13113	100	44.308416647859026	1
2025-5-20 11:27:14.955	WT901BLE68(76B4B30218CB)	0.042	0.189	1.006	-4.639	-3.662	0.488	12.82	-2.07	-40.02	-18.942	-1.75	-57.8	0.93665	0.10471	-0.05356	-0.32977	24.4	13113	100	44.308416647859026	1
2025-5-20 11:27:14.955	WT901BLE68(76B4B30218CB)	0.042	0.191	1.009	-4.333	-2.686	1.343	12.79	-2.08	-40.08	-18.942	-1.75	-57.8	0.93665	0.10471	-0.05356	-0.32977	24.4	13113	100	44.308416647859026	1
2025-5-20 11:27:14.955	WT901BLE68(76B4B30218CB)	0.042	0.191	1.009	-4.333	-2.686	1.343	12.77	-2.09	-40.13	-18.942	-1.75	-57.8	0.93665	0.10471	-0.05356	-0.32977	24.4	13113	100	44.308416647859026	1
2025-5-20 11:27:14.955	WT901BLE68(76B4B30218CB)	0.042	0.191	1.009	-4.333	-2.686	1.343	12.74	-2.1	-40.18	-18.942	-1.75	-57.8	0.93665	0.10471	-0.05356	-0.32977	24.4	13113	100	44.308416647859026	1
2025-5-20 11:27:14.955	WT901BLE68(76B4B30218CB)	0.037	0.191	1.009	-4.333	-2.686	1.343	12.72	-2.12	-40.23	-18.942	-1.75	-57.8	0.93665	0.10471	-0.05356	-0.32977	24.4	13113	100	44.308416647859026	1
2025-5-20 11:27:14.955	WT901BLE68(76B4B30218CB)	0.037	0.193	1.013	-3.052	-1.892	1.404	12.69	-2.13	-40.28	-18.942	-1.75	-57.8	0.93665	0.10471	-0.05356	-0.32977	24.4	13113	100	44.308416647859026	1
2025-5-20 11:27:14.955	WT901BLE68(76B4B30218CB)	0.037	0.193	1.013	-3.052	-1.892	1.404	12.67	-2.14	-40.33	-18.942	-1.75	-57.8	0.93665	0.10471	-0.05356	-0.32977	24.4	13113	100	44.308416647859026	1
2025-5-20 11:27:14.955	WT901BLE68(76B4B30218CB)	0.037	0.193	1.013	-3.052	-1.892	1.404	12.66	-2.15	-40.38	-18.942	-1.75	-57.8	0.93665	0.10471	-0.05356	-0.32977	24.4	13113	100	44.308416647859026	1
2025-5-20 11:27:14.979	WT901BLE68(76B4B30218CB)	0.04	0.193	1.013	-3.052	-1.892	1.404	12.63	-2.15	-40.43	-18.942	-1.75	-57.8	0.93665	0.10471	-0.05356	-0.32977	24.4	13113	100	44.308416647859026	1
2025-5-20 11:27:14.979	WT901BLE68(76B4B30218CB)	0.04	0.188	1.013	-2.075	-2.014	0.549	12.62	-2.16	-40.48	-18.942	-1.75	-57.8	0.93665	0.10471	-0.05356	-0.32977	24.4	13113	100	44.308416647859026	1
2025-5-20 11:27:14.979	WT901BLE68(76B4B30218CB)	0.04	0.188	1.013	-2.075	-2.014	0.549	12.61	-2.17	-40.53	-18.942	-1.75	-57.8	0.93665	0.10471	-0.05356	-0.32977	24.4	13113	100	44.308416647859026	1
2025-5-20 11:27:14.979	WT901BLE68(76B4B30218CB)	0.04	0.188	1.013	-2.075	-2.014	0.549	12.59	-2.18	-40.59	-18.942	-1.75	-57.8	0.93665	0.10471	-0.05356	-0.32977	24.4	13113	100	44.308416647859026	1
2025-5-20 11:27:14.979	WT901BLE68(76B4B30218CB)	0.043	0.188	1.013	-2.075	-2.014	0.549	12.57	-2.19	-40.64	-18.942	-1.75	-57.8	0.93665	0.10471	-0.05356	-0.32977	24.4	13113	100	44.308416647859026	1
2025-5-20 11:27:14.979	WT901BLE68(76B4B30218CB)	0.043	0.176	1.015	-2.075	-1.648	0.061	12.56	-2.2	-40.7	-18.942	-1.75	-57.8	0.93665	0.10471	-0.05356	-0.32977	24.4	13113	100	44.308416647859026	1
2025-5-20 11:27:14.979	WT901BLE68(76B4B30218CB)	0.043	0.176	1.015	-2.075	-1.648	0.061	12.55	-2.2	-40.75	-18.942	-1.75	-57.8	0.93665	0.10471	-0.05356	-0.32977	24.4	13113	100	44.308416647859026	1
2025-5-20 11:27:14.979	WT901BLE68(76B4B30218CB)	0.043	0.176	1.015	-2.075	-1.648	0.061	12.53	-2.21	-40.81	-18.942	-1.75	-57.8	0.93665	0.10471	-0.05356	-0.32977	24.4	13113	100	44.308416647859026	1
2025-5-20 11:27:15.38	WT901BLE68(76B4B30218CB)	0.044	0.176	1.015	-2.075	-1.648	0.061	12.51	-2.21	-40.86	-18.942	-1.75	-57.8	0.93665	0.10471	-0.05356	-0.32977	24.4	13113	100	44.308416647859026	1
2025-5-20 11:27:15.38	WT901BLE68(76B4B30218CB)	0.044	0.175	1.018	-2.38	-1.282	0.549	12.5	-2.22	-40.91	-18.942	-1.75	-57.8	0.93665	0.10471	-0.05356	-0.32977	24.4	13113	100	44.308416647859026	1
2025-5-20 11:27:15.38	WT901BLE68(76B4B30218CB)	0.044	0.175	1.018	-2.38	-1.282	0.549	12.48	-2.22	-40.96	-18.942	-1.75	-57.8	0.93665	0.10471	-0.05356	-0.32977	24.4	13113	100	44.308416647859026	1
2025-5-20 11:27:15.38	WT901BLE68(76B4B30218CB)	0.044	0.175	1.018	-2.38	-1.282	0.549	12.46	-2.23	-41.02	-18.942	-1.75	-57.8	0.93665	0.10471	-0.05356	-0.32977	24.4	13113	100	44.308416647859026	1
2025-5-20 11:27:15.38	WT901BLE68(76B4B30218CB)	0.056	0.175	1.018	-2.38	-1.282	0.549	12.45	-2.24	-41.07	-18.942	-1.75	-57.8	0.93665	0.10471	-0.05356	-0.32977	24.4	13113	100	44.308416647859026	1
2025-5-20 11:27:15.38	WT901BLE68(76B4B30218CB)	0.056	0.184	1.018	-1.77	-0.977	0.0	12.43	-2.24	-41.12	-18.942	-1.75	-57.8	0.93665	0.10471	-0.05356	-0.32977	24.4	13113	100	44.308416647859026	1
2025-5-20 11:27:15.38	WT901BLE68(76B4B30218CB)	0.056	0.184	1.018	-1.77	-0.977	0.0	12.42	-2.24	-41.18	-18.942	-1.75	-57.8	0.93665	0.10471	-0.05356	-0.32977	24.4	13113	100	44.308416647859026	1
2025-5-20 11:27:15.38	WT901BLE68(76B4B30218CB)	0.056	0.184	1.018	-1.77	-0.977	0.0	12.4	-2.25	-41.23	-18.942	-1.75	-57.8	0.93665	0.10471	-0.05356	-0.32977	24.4	13113	100	44.308416647859026	1
2025-5-20 11:27:15.70	WT901BLE68(76B4B30218CB)	0.055	0.184	1.018	-1.77	-0.977	0.0	12.39	-2.25	-41.28	-20.458	0.892	-56.133	0.93665	0.10471	-0.05356	-0.32977	24.4	13113	100	44.308416647859026	1
2025-5-20 11:27:15.70	WT901BLE68(76B4B30218CB)	0.055	0.181	1.014	-1.16	-0.244	-0.305	12.38	-2.25	-41.34	-20.458	0.892	-56.133	0.93665	0.10471	-0.05356	-0.32977	24.4	13113	100	44.308416647859026	1
2025-5-20 11:27:15.70	WT901BLE68(76B4B30218CB)	0.055	0.181	1.014	-1.16	-0.244	-0.305	12.37	-2.25	-41.39	-20.458	0.892	-56.133	0.93665	0.10471	-0.05356	-0.32977	24.4	13113	100	44.308416647859026	1
2025-5-20 11:27:15.70	WT901BLE68(76B4B30218CB)	0.055	0.181	1.014	-1.16	-0.244	-0.305	12.35	-2.25	-41.44	-20.458	0.892	-56.133	0.93665	0.10471	-0.05356	-0.32977	24.4	13113	100	44.308416647859026	1
2025-5-20 11:27:15.70	WT901BLE68(76B4B30218CB)	0.043	0.181	1.014	-1.16	-0.244	-0.305	12.34	-2.25	-41.49	-20.458	0.892	-56.133	0.93665	0.10471	-0.05356	-0.32977	24.4	13113	100	44.308416647859026	1
2025-5-20 11:27:15.70	WT901BLE68(76B4B30218CB)	0.043	0.179	1.012	-1.221	-0.427	-1.343	12.33	-2.25	-41.54	-20.458	0.892	-56.133	0.93665	0.10471	-0.05356	-0.32977	24.4	13113	100	44.308416647859026	1
2025-5-20 11:27:15.70	WT901BLE68(76B4B30218CB)	0.043	0.179	1.012	-1.221	-0.427	-1.343	12.32	-2.25	-41.61	-20.458	0.892	-56.133	0.93665	0.10471	-0.05356	-0.32977	24.4	13113	100	44.308416647859026	1
2025-5-20 11:27:15.70	WT901BLE68(76B4B30218CB)	0.043	0.179	1.012	-1.221	-0.427	-1.343	12.31	-2.25	-41.66	-20.458	0.892	-56.133	0.93665	0.10471	-0.05356	-0.32977	24.4	13113	100	44.308416647859026	1
2025-5-20 11:27:15.100	WT901BLE68(76B4B30218CB)	0.044	0.179	1.012	-1.221	-0.427	-1.343	12.3	-2.25	-41.72	-20.458	0.892	-56.133	0.93665	0.10471	-0.05356	-0.32977	24.4	13113	100	44.308416647859026	1
2025-5-20 11:27:15.100	WT901BLE68(76B4B30218CB)	0.044	0.184	1.01	-0.793	0.183	-1.465	12.29	-2.25	-41.78	-20.458	0.892	-56.133	0.93665	0.10471	-0.05356	-0.32977	24.4	13113	100	44.308416647859026	1
2025-5-20 11:27:15.100	WT901BLE68(76B4B30218CB)	0.044	0.184	1.01	-0.793	0.183	-1.465	12.28	-2.25	-41.83	-20.458	0.892	-56.133	0.93665	0.10471	-0.05356	-0.32977	24.4	13113	100	44.308416647859026	1
2025-5-20 11:27:15.100	WT901BLE68(76B4B30218CB)	0.044	0.184	1.01	-0.793	0.183	-1.465	12.27	-2.25	-41.89	-20.458	0.892	-56.133	0.93665	0.10471	-0.05356	-0.32977	24.4	13113	100	44.308416647859026	1
2025-5-20 11:27:15.100	WT901BLE68(76B4B30218CB)	0.044	0.184	1.01	-0.793	0.183	-1.465	12.26	-2.24	-41.95	-20.458	0.892	-56.133	0.93665	0.10471	-0.05356	-0.32977	24.4	13113	100	44.308416647859026	1
2025-5-20 11:27:15.100	WT901BLE68(76B4B30218CB)	0.044	0.182	1.004	0.488	0.916	-1.038	12.26	-2.24	-42.0	-20.458	0.892	-56.133	0.93665	0.10471	-0.05356	-0.32977	24.4	13113	100	44.308416647859026	1
2025-5-20 11:27:15.100	WT901BLE68(76B4B30218CB)	0.044	0.182	1.004	0.488	0.916	-1.038	12.26	-2.23	-42.05	-20.458	0.892	-56.133	0.93665	0.10471	-0.05356	-0.32977	24.4	13113	100	44.308416647859026	1
2025-5-20 11:27:15.100	WT901BLE68(76B4B30218CB)	0.044	0.182	1.004	0.488	0.916	-1.038	12.25	-2.22	-42.11	-20.458	0.892	-56.133	0.93665	0.10471	-0.05356	-0.32977	24.4	13113	100	44.308416647859026	1
2025-5-20 11:27:15.159	WT901BLE68(76B4B30218CB)	0.043	0.182	1.004	0.488	0.916	-1.038	12.25	-2.22	-42.15	-20.458	0.892	-56.133	0.93665	0.10471	-0.05356	-0.32977	24.4	13113	100	44.308416647859026	1
2025-5-20 11:27:15.159	WT901BLE68(76B4B30218CB)	0.043	0.171	1.004	1.16	1.16	-0.488	12.25	-2.21	-42.2	-20.458	0.892	-56.133	0.93665	0.10471	-0.05356	-0.32977	24.4	13113	100	44.308416647859026	1
2025-5-20 11:27:15.159	WT901BLE68(76B4B30218CB)	0.043	0.171	1.004	1.16	1.16	-0.488	12.25	-2.21	-42.25	-20.458	0.892	-56.133	0.93665	0.10471	-0.05356	-0.32977	24.4	13113	100	44.308416647859026	1
2025-5-20 11:27:15.159	WT901BLE68(76B4B30218CB)	0.043	0.171	1.004	1.16	1.16	-0.488	12.25	-2.2	-42.3	-20.458	0.892	-56.133	0.93665	0.10471	-0.05356	-0.32977	24.4	13113	100	44.308416647859026	1
2025-5-20 11:27:15.159	WT901BLE68(76B4B30218CB)	0.041	0.171	1.004	1.16	1.16	-0.488	12.24	-2.19	-42.35	-20.458	0.892	-56.133	0.93665	0.10471	-0.05356	-0.32977	24.4	13113	100	44.308416647859026	1
2025-5-20 11:27:15.159	WT901BLE68(76B4B30218CB)	0.041	0.173	1.003	1.099	0.793	-0.671	12.24	-2.19	-42.39	-20.458	0.892	-56.133	0.93665	0.10471	-0.05356	-0.32977	24.4	13113	100	44.308416647859026	1
2025-5-20 11:27:15.159	WT901BLE68(76B4B30218CB)	0.041	0.173	1.003	1.099	0.793	-0.671	12.24	-2.19	-42.44	-20.458	0.892	-56.133	0.93665	0.10471	-0.05356	-0.32977	24.4	13113	100	44.308416647859026	1
2025-5-20 11:27:15.159	WT901BLE68(76B4B30218CB)	0.041	0.173	1.003	1.099	0.793	-0.671	12.24	-2.18	-42.49	-20.458	0.892	-56.133	0.93665	0.10471	-0.05356	-0.32977	24.4	13113	100	44.308416647859026	1
2025-5-20 11:27:15.189	WT901BLE68(76B4B30218CB)	0.042	0.173	1.003	1.099	0.793	-0.671	12.24	-2.18	-42.54	-20.458	0.892	-56.133	0.93665	0.10471	-0.05356	-0.32977	24.4	13113	100	44.308416647859026	1
2025-5-20 11:27:15.190	WT901BLE68(76B4B30218CB)	0.042	0.18	1.001	1.221	0.366	-0.793	12.24	-2.17	-42.59	-20.458	0.892	-56.133	0.93665	0.10471	-0.05356	-0.32977	24.4	13113	100	44.308416647859026	1
2025-5-20 11:27:15.190	WT901BLE68(76B4B30218CB)	0.042	0.18	1.001	1.221	0.366	-0.793	12.24	-2.17	-42.64	-20.458	0.892	-56.133	0.93665	0.10471	-0.05356	-0.32977	24.4	13113	100	44.308416647859026	1
2025-5-20 11:27:15.190	WT901BLE68(76B4B30218CB)	0.042	0.18	1.001	1.221	0.366	-0.793	12.24	-2.16	-42.69	-20.458	0.892	-56.133	0.93665	0.10471	-0.05356	-0.32977	24.4	13113	100	44.308416647859026	1
2025-5-20 11:27:15.190	WT901BLE68(76B4B30218CB)	0.046	0.18	1.001	1.221	0.366	-0.793	12.24	-2.16	-42.74	-20.458	0.892	-56.133	0.93665	0.10471	-0.05356	-0.32977	24.4	13113	100	44.308416647859026	1
2025-5-20 11:27:15.190	WT901BLE68(76B4B30218CB)	0.046	0.19	0.998	1.831	0.916	-0.488	12.24	-2.16	-42.79	-20.458	0.892	-56.133	0.93665	0.10471	-0.05356	-0.32977	24.4	13113	100	44.308416647859026	1
2025-5-20 11:27:15.190	WT901BLE68(76B4B30218CB)	0.046	0.19	0.998	1.831	0.916	-0.488	12.25	-2.15	-42.84	-20.458	0.892	-56.133	0.93665	0.10471	-0.05356	-0.32977	24.4	13113	100	44.308416647859026	1
2025-5-20 11:27:15.190	WT901BLE68(76B4B30218CB)	0.046	0.19	0.998	1.831	0.916	-0.488	12.26	-2.15	-42.88	-20.458	0.892	-56.133	0.93665	0.10471	-0.05356	-0.32977	24.4	13113	100	44.308416647859026	1
2025-5-20 11:27:15.219	WT901BLE68(76B4B30218CB)	0.042	0.19	0.998	1.831	0.916	-0.488	12.26	-2.14	-42.93	-20.458	0.892	-56.133	0.93665	0.10471	-0.05356	-0.32977	24.4	13113	100	44.308416647859026	1
2025-5-20 11:27:15.219	WT901BLE68(76B4B30218CB)	0.042	0.184	1.004	2.319	1.465	0.183	12.26	-2.14	-42.97	-20.458	0.892	-56.133	0.93665	0.10471	-0.05356	-0.32977	24.4	13113	100	44.308416647859026	1
2025-5-20 11:27:15.219	WT901BLE68(76B4B30218CB)	0.042	0.184	1.004	2.319	1.465	0.183	12.27	-2.13	-43.02	-20.458	0.892	-56.133	0.93665	0.10471	-0.05356	-0.32977	24.4	13113	100	44.308416647859026	1
2025-5-20 11:27:15.219	WT901BLE68(76B4B30218CB)	0.042	0.184	1.004	2.319	1.465	0.183	12.27	-2.12	-43.06	-20.458	0.892	-56.133	0.93665	0.10471	-0.05356	-0.32977	24.4	13113	100	44.308416647859026	1
2025-5-20 11:27:15.219	WT901BLE68(76B4B30218CB)	0.037	0.184	1.004	2.319	1.465	0.183	12.28	-2.11	-43.1	-20.458	0.892	-56.133	0.93665	0.10471	-0.05356	-0.32977	24.4	13113	100	44.308416647859026	1
2025-5-20 11:27:15.219	WT901BLE68(76B4B30218CB)	0.037	0.178	1.007	2.258	0.793	-0.427	12.28	-2.11	-43.15	-20.458	0.892	-56.133	0.93665	0.10471	-0.05356	-0.32977	24.4	13113	100	44.308416647859026	1
2025-5-20 11:27:15.219	WT901BLE68(76B4B30218CB)	0.037	0.178	1.007	2.258	0.793	-0.427	12.29	-2.11	-43.2	-20.458	0.892	-56.133	0.93665	0.10471	-0.05356	-0.32977	24.4	13113	100	44.308416647859026	1
2025-5-20 11:27:15.219	WT901BLE68(76B4B30218CB)	0.037	0.178	1.007	2.258	0.793	-0.427	12.29	-2.1	-43.25	-20.458	0.892	-56.133	0.93665	0.10471	-0.05356	-0.32977	24.4	13113	100	44.308416647859026	1
2025-5-20 11:27:15.280	WT901BLE68(76B4B30218CB)	0.047	0.178	1.007	2.258	0.793	-0.427	12.3	-2.1	-43.29	-20.458	0.892	-56.133	0.93665	0.10471	-0.05356	-0.32977	24.4	13113	100	44.308416647859026	1
2025-5-20 11:27:15.280	WT901BLE68(76B4B30218CB)	0.047	0.175	1.003	2.563	-0.732	-0.732	12.3	-2.1	-43.35	-20.458	0.892	-56.133	0.92447	0.09283	-0.05655	-0.3653	24.4	13113	100	42.59892596436131	1
2025-5-20 11:27:15.280	WT901BLE68(76B4B30218CB)	0.047	0.175	1.003	2.563	-0.732	-0.732	12.31	-2.1	-43.4	-20.458	0.892	-56.133	0.92447	0.09283	-0.05655	-0.3653	24.4	13113	100	42.59892596436131	1
2025-5-20 11:27:15.280	WT901BLE68(76B4B30218CB)	0.047	0.175	1.003	2.563	-0.732	-0.732	12.32	-2.11	-43.45	-20.458	0.892	-56.133	0.92447	0.09283	-0.05655	-0.3653	24.4	13113	100	42.59892596436131	1
2025-5-20 11:27:15.280	WT901BLE68(76B4B30218CB)	0.039	0.175	1.003	2.563	-0.732	-0.732	12.33	-2.11	-43.51	-20.458	0.892	-56.133	0.92447	0.09283	-0.05655	-0.3653	24.4	13113	100	42.59892596436131	1
2025-5-20 11:27:15.280	WT901BLE68(76B4B30218CB)	0.039	0.188	1.001	3.296	-1.404	-2.014	12.34	-2.11	-43.56	-20.458	0.892	-56.133	0.92447	0.09283	-0.05655	-0.3653	24.4	13113	100	42.59892596436131	1
2025-5-20 11:27:15.280	WT901BLE68(76B4B30218CB)	0.039	0.188	1.001	3.296	-1.404	-2.014	12.35	-2.12	-43.62	-20.458	0.892	-56.133	0.92447	0.09283	-0.05655	-0.3653	24.4	13113	100	42.59892596436131	1
2025-5-20 11:27:15.280	WT901BLE68(76B4B30218CB)	0.036	0.188	1.001	3.296	-1.404	-2.014	12.35	-2.13	-43.68	-20.458	0.892	-56.133	0.92447	0.09283	-0.05655	-0.3653	24.4	13113	100	42.59892596436131	1
2025-5-20 11:27:15.309	WT901BLE68(76B4B30218CB)	0.036	0.18	1.003	3.967	-1.282	-2.686	12.37	-2.13	-43.74	-20.458	0.892	-56.133	0.92447	0.09283	-0.05655	-0.3653	24.4	13113	100	42.59892596436131	1
2025-5-20 11:27:15.309	WT901BLE68(76B4B30218CB)	0.036	0.18	1.003	3.967	-1.282	-2.686	12.39	-2.13	-43.8	-20.458	0.892	-56.133	0.92447	0.09283	-0.05655	-0.3653	24.4	13113	100	42.59892596436131	1
2025-5-20 11:27:15.309	WT901BLE68(76B4B30218CB)	0.036	0.18	1.003	3.967	-1.282	-2.686	12.4	-2.13	-43.86	-20.458	0.892	-56.133	0.92447	0.09283	-0.05655	-0.3653	24.4	13113	100	42.223525017206526	1
2025-5-20 11:27:15.310	WT901BLE68(76B4B30218CB)	0.024	0.18	1.003	3.967	-1.282	-2.686	12.41	-2.14	-43.92	-20.458	0.892	-56.133	0.92447	0.09283	-0.05655	-0.3653	24.4	13113	100	42.223525017206526	1
2025-5-20 11:27:15.310	WT901BLE68(76B4B30218CB)	0.024	0.178	0.998	3.601	-1.892	-3.296	12.43	-2.14	-43.98	-20.458	0.892	-56.133	0.92447	0.09283	-0.05655	-0.3653	24.4	13113	100	42.223525017206526	1
2025-5-20 11:27:15.310	WT901BLE68(76B4B30218CB)	0.024	0.178	0.998	3.601	-1.892	-3.296	12.44	-2.15	-44.04	-20.458	0.892	-56.133	0.92447	0.09283	-0.05655	-0.3653	24.4	13113	100	42.223525017206526	1
2025-5-20 11:27:15.310	WT901BLE68(76B4B30218CB)	0.024	0.178	0.998	3.601	-1.892	-3.296	12.45	-2.15	-44.11	-20.458	0.892	-56.133	0.92447	0.09283	-0.05655	-0.3653	24.4	13113	100	42.223525017206526	1
2025-5-20 11:27:15.310	WT901BLE68(76B4B30218CB)	0.036	0.178	0.998	3.601	-1.892	-3.296	12.46	-2.15	-44.17	-20.458	0.892	-56.133	0.92447	0.09283	-0.05655	-0.3653	24.4	13113	100	42.223525017206526	1
2025-5-20 11:27:15.338	WT901BLE68(76B4B30218CB)	0.036	0.193	0.987	2.563	-2.38	-3.235	12.47	-2.16	-44.24	-20.458	0.892	-56.133	0.92447	0.09283	-0.05655	-0.3653	24.4	13113	100	42.223525017206526	1
2025-5-20 11:27:15.338	WT901BLE68(76B4B30218CB)	0.036	0.193	0.987	2.563	-2.38	-3.235	12.47	-2.17	-44.3	-20.458	0.892	-56.133	0.92447	0.09283	-0.05655	-0.3653	24.4	13113	100	42.223525017206526	1
2025-5-20 11:27:15.338	WT901BLE68(76B4B30218CB)	0.036	0.193	0.987	2.563	-2.38	-3.235	12.48	-2.18	-44.36	-20.458	0.892	-56.133	0.92447	0.09283	-0.05655	-0.3653	24.4	13113	100	42.223525017206526	1
2025-5-20 11:27:15.338	WT901BLE68(76B4B30218CB)	0.056	0.193	0.987	2.563	-2.38	-3.235	12.49	-2.19	-44.42	-20.458	0.892	-56.133	0.92447	0.09283	-0.05655	-0.3653	24.4	13113	100	42.223525017206526	1
2025-5-20 11:27:15.338	WT901BLE68(76B4B30218CB)	0.056	0.211	0.982	3.113	-1.404	-1.77	12.5	-2.19	-44.48	-20.458	0.892	-56.133	0.92447	0.09283	-0.05655	-0.3653	24.4	13113	100	42.223525017206526	1
2025-5-20 11:27:15.339	WT901BLE68(76B4B30218CB)	0.056	0.211	0.982	3.113	-1.404	-1.77	12.51	-2.19	-44.54	-20.458	0.892	-56.133	0.92447	0.09283	-0.05655	-0.3653	24.4	13113	100	42.223525017206526	1
2025-5-20 11:27:15.339	WT901BLE68(76B4B30218CB)	0.056	0.211	0.982	3.113	-1.404	-1.77	12.52	-2.2	-44.6	-20.458	0.892	-56.133	0.92447	0.09283	-0.05655	-0.3653	24.4	13113	100	42.223525017206526	1
2025-5-20 11:27:15.339	WT901BLE68(76B4B30218CB)	0.054	0.211	0.982	3.113	-1.404	-1.77	12.53	-2.2	-44.65	-20.458	0.892	-56.133	0.92447	0.09283	-0.05655	-0.3653	24.4	13113	100	42.223525017206526	1
2025-5-20 11:27:15.399	WT901BLE68(76B4B30218CB)	0.054	0.208	0.987	4.639	-1.221	-1.587	12.55	-2.21	-44.71	-20.458	0.892	-56.133	0.92447	0.09283	-0.05655	-0.3653	24.4	13113	100	42.223525017206526	1
2025-5-20 11:27:15.399	WT901BLE68(76B4B30218CB)	0.054	0.208	0.987	4.639	-1.221	-1.587	12.57	-2.21	-44.76	-20.458	0.892	-56.133	0.92447	0.09283	-0.05655	-0.3653	24.4	13113	100	42.223525017206526	1
2025-5-20 11:27:15.399	WT901BLE68(76B4B30218CB)	0.054	0.208	0.987	4.639	-1.221	-1.587	12.58	-2.21	-44.81	-20.458	0.892	-56.133	0.92447	0.09283	-0.05655	-0.3653	24.4	13113	100	42.223525017206526	1
2025-5-20 11:27:15.399	WT901BLE68(76B4B30218CB)	0.037	0.208	0.987	4.639	-1.221	-1.587	12.6	-2.22	-44.87	-20.458	0.892	-56.133	0.92447	0.09283	-0.05655	-0.3653	24.4	13113	100	42.223525017206526	1
2025-5-20 11:27:15.400	WT901BLE68(76B4B30218CB)	0.037	0.198	0.989	4.456	-0.916	-1.892	12.62	-2.22	-44.92	-20.458	0.892	-56.133	0.92447	0.09283	-0.05655	-0.3653	24.4	13113	100	42.223525017206526	1
2025-5-20 11:27:15.400	WT901BLE68(76B4B30218CB)	0.037	0.198	0.989	4.456	-0.916	-1.892	12.64	-2.22	-44.98	-20.458	0.892	-56.133	0.92447	0.09283	-0.05655	-0.3653	24.4	13113	100	42.223525017206526	1
2025-5-20 11:27:15.400	WT901BLE68(76B4B30218CB)	0.037	0.198	0.989	4.456	-0.916	-1.892	12.66	-2.22	-45.03	-20.458	0.892	-56.133	0.92447	0.09283	-0.05655	-0.3653	24.4	13113	100	42.223525017206526	1
2025-5-20 11:27:15.400	WT901BLE68(76B4B30218CB)	0.041	0.198	0.989	4.456	-0.916	-1.892	12.67	-2.22	-45.09	-20.458	0.892	-56.133	0.92447	0.09283	-0.05655	-0.3653	24.4	13113	100	42.223525017206526	1
2025-5-20 11:27:15.429	WT901BLE68(76B4B30218CB)	0.041	0.194	0.986	3.357	-1.282	-2.319	12.68	-2.23	-45.14	-20.458	0.892	-56.133	0.92447	0.09283	-0.05655	-0.3653	24.4	13113	100	42.223525017206526	1
2025-5-20 11:27:15.430	WT901BLE68(76B4B30218CB)	0.041	0.194	0.986	3.357	-1.282	-2.319	12.69	-2.24	-45.2	-20.458	0.892	-56.133	0.92447	0.09283	-0.05655	-0.3653	24.4	13113	100	42.223525017206526	1
2025-5-20 11:27:15.430	WT901BLE68(76B4B30218CB)	0.041	0.194	0.986	3.357	-1.282	-2.319	12.71	-2.24	-45.25	-20.458	0.892	-56.133	0.92447	0.09283	-0.05655	-0.3653	24.4	13113	100	42.223525017206526	1
2025-5-20 11:27:15.430	WT901BLE68(76B4B30218CB)	0.04	0.194	0.986	3.357	-1.282	-2.319	12.72	-2.24	-45.31	-20.458	0.892	-56.133	0.92447	0.09283	-0.05655	-0.3653	24.4	13113	100	42.223525017206526	1
2025-5-20 11:27:15.430	WT901BLE68(76B4B30218CB)	0.04	0.205	0.993	2.686	-1.16	-2.991	12.73	-2.24	-45.36	-20.458	0.892	-56.133	0.92447	0.09283	-0.05655	-0.3653	24.4	13113	100	42.223525017206526	1
2025-5-20 11:27:15.430	WT901BLE68(76B4B30218CB)	0.04	0.205	0.993	2.686	-1.16	-2.991	12.74	-2.25	-45.42	-20.675	0.267	-55.508	0.92447	0.09283	-0.05655	-0.3653	24.4	13113	100	42.223525017206526	1
2025-5-20 11:27:15.430	WT901BLE68(76B4B30218CB)	0.04	0.205	0.993	2.686	-1.16	-2.991	12.75	-2.25	-45.48	-20.675	0.267	-55.508	0.92447	0.09283	-0.05655	-0.3653	24.4	13113	100	42.223525017206526	1
2025-5-20 11:27:15.430	WT901BLE68(76B4B30218CB)	0.039	0.205	0.993	2.686	-1.16	-2.991	12.76	-2.25	-45.54	-20.675	0.267	-55.508	0.92447	0.09283	-0.05655	-0.3653	24.4	13113	100	42.223525017206526	1
2025-5-20 11:27:15.459	WT901BLE68(76B4B30218CB)	0.039	0.2	0.995	2.197	-1.343	-3.54	12.77	-2.25	-45.6	-20.675	0.267	-55.508	0.92447	0.09283	-0.05655	-0.3653	24.4	13113	100	42.223525017206526	1
2025-5-20 11:27:15.459	WT901BLE68(76B4B30218CB)	0.039	0.2	0.995	2.197	-1.343	-3.54	12.77	-2.25	-45.66	-20.675	0.267	-55.508	0.92447	0.09283	-0.05655	-0.3653	24.4	13113	100	42.223525017206526	1
2025-5-20 11:27:15.459	WT901BLE68(76B4B30218CB)	0.039	0.2	0.995	2.197	-1.343	-3.54	12.78	-2.26	-45.72	-20.675	0.267	-55.508	0.92447	0.09283	-0.05655	-0.3653	24.4	13113	100	42.223525017206526	1
2025-5-20 11:27:15.459	WT901BLE68(76B4B30218CB)	0.042	0.2	0.995	2.197	-1.343	-3.54	12.78	-2.26	-45.77	-20.675	0.267	-55.508	0.92447	0.09283	-0.05655	-0.3653	24.4	13113	100	42.223525017206526	1
2025-5-20 11:27:15.459	WT901BLE68(76B4B30218CB)	0.042	0.206	0.992	1.892	-1.343	-2.93	12.79	-2.26	-45.83	-20.675	0.267	-55.508	0.92447	0.09283	-0.05655	-0.3653	24.4	13113	100	42.223525017206526	1
2025-5-20 11:27:15.459	WT901BLE68(76B4B30218CB)	0.042	0.206	0.992	1.892	-1.343	-2.93	12.79	-2.26	-45.88	-20.675	0.267	-55.508	0.92447	0.09283	-0.05655	-0.3653	24.4	13113	100	42.223525017206526	1
2025-5-20 11:27:15.459	WT901BLE68(76B4B30218CB)	0.042	0.206	0.992	1.892	-1.343	-2.93	12.8	-2.27	-45.94	-20.675	0.267	-55.508	0.92447	0.09283	-0.05655	-0.3653	24.4	13113	100	42.223525017206526	1
2025-5-20 11:27:15.459	WT901BLE68(76B4B30218CB)	0.039	0.206	0.992	1.892	-1.343	-2.93	12.8	-2.27	-45.99	-20.675	0.267	-55.508	0.92447	0.09283	-0.05655	-0.3653	24.4	13113	100	42.223525017206526	1
2025-5-20 11:27:15.519	WT901BLE68(76B4B30218CB)	0.039	0.211	0.988	1.892	-0.977	-2.502	12.81	-2.27	-46.04	-20.675	0.267	-55.508	0.92447	0.09283	-0.05655	-0.3653	24.4	13113	100	42.223525017206526	1
2025-5-20 11:27:15.519	WT901BLE68(76B4B30218CB)	0.039	0.211	0.988	1.892	-0.977	-2.502	12.82	-2.27	-46.09	-20.675	0.267	-55.508	0.92447	0.09283	-0.05655	-0.3653	24.4	13113	100	42.223525017206526	1
2025-5-20 11:27:15.519	WT901BLE68(76B4B30218CB)	0.039	0.211	0.988	1.892	-0.977	-2.502	12.83	-2.27	-46.15	-20.675	0.267	-55.508	0.92447	0.09283	-0.05655	-0.3653	24.4	13113	100	42.223525017206526	1
2025-5-20 11:27:15.519	WT901BLE68(76B4B30218CB)	0.044	0.211	0.988	1.892	-0.977	-2.502	12.83	-2.28	-46.2	-20.675	0.267	-55.508	0.92447	0.09283	-0.05655	-0.3653	24.4	13113	100	42.223525017206526	1
2025-5-20 11:27:15.519	WT901BLE68(76B4B30218CB)	0.044	0.202	0.986	2.014	-1.343	-2.869	12.84	-2.28	-46.25	-20.675	0.267	-55.508	0.92447	0.09283	-0.05655	-0.3653	24.4	13113	100	42.223525017206526	1
2025-5-20 11:27:15.519	WT901BLE68(76B4B30218CB)	0.044	0.202	0.986	2.014	-1.343	-2.869	12.84	-2.29	-46.31	-20.675	0.267	-55.508	0.92447	0.09283	-0.05655	-0.3653	24.4	13113	100	42.223525017206526	1
2025-5-20 11:27:15.519	WT901BLE68(76B4B30218CB)	0.044	0.202	0.986	2.014	-1.343	-2.869	12.85	-2.29	-46.36	-20.675	0.267	-55.508	0.92447	0.09283	-0.05655	-0.3653	24.4	13113	100	42.223525017206526	1
2025-5-20 11:27:15.520	WT901BLE68(76B4B30218CB)	0.036	0.202	0.986	2.014	-1.343	-2.869	12.85	-2.29	-46.41	-20.675	0.267	-55.508	0.92447	0.09283	-0.05655	-0.3653	24.4	13113	100	42.223525017206526	1
2025-5-20 11:27:15.554	WT901BLE68(76B4B30218CB)	0.036	0.204	0.987	1.953	-1.099	-2.197	12.86	-2.29	-46.46	-20.675	0.267	-55.508	0.92447	0.09283	-0.05655	-0.3653	24.4	13113	100	42.223525017206526	1
2025-5-20 11:27:15.554	WT901BLE68(76B4B30218CB)	0.036	0.204	0.987	1.953	-1.099	-2.197	12.86	-2.3	-46.51	-20.675	0.267	-55.508	0.92447	0.09283	-0.05655	-0.3653	24.4	13113	100	42.223525017206526	1
2025-5-20 11:27:15.554	WT901BLE68(76B4B30218CB)	0.036	0.204	0.987	1.953	-1.099	-2.197	12.88	-2.3	-46.55	-20.675	0.267	-55.508	0.92447	0.09283	-0.05655	-0.3653	24.4	13113	100	42.223525017206526	1
2025-5-20 11:27:15.554	WT901BLE68(76B4B30218CB)	0.041	0.204	0.987	1.953	-1.099	-2.197	12.88	-2.3	-46.6	-20.675	0.267	-55.508	0.92447	0.09283	-0.05655	-0.3653	24.4	13113	100	42.223525017206526	1
2025-5-20 11:27:15.554	WT901BLE68(76B4B30218CB)	0.041	0.202	0.985	2.014	-1.221	-1.831	12.89	-2.3	-46.65	-20.675	0.267	-55.508	0.92447	0.09283	-0.05655	-0.3653	24.4	13113	100	42.223525017206526	1
2025-5-20 11:27:15.554	WT901BLE68(76B4B30218CB)	0.041	0.202	0.985	2.014	-1.221	-1.831	12.89	-2.31	-46.69	-20.675	0.267	-55.508	0.92447	0.09283	-0.05655	-0.3653	24.4	13113	100	42.223525017206526	1
2025-5-20 11:27:15.554	WT901BLE68(76B4B30218CB)	0.041	0.202	0.985	2.014	-1.221	-1.831	12.9	-2.31	-46.73	-20.675	0.267	-55.508	0.92447	0.09283	-0.05655	-0.3653	24.4	13113	100	42.223525017206526	1
2025-5-20 11:27:15.554	WT901BLE68(76B4B30218CB)	0.042	0.202	0.985	2.014	-1.221	-1.831	12.9	-2.31	-46.77	-20.675	0.267	-55.508	0.92447	0.09283	-0.05655	-0.3653	24.4	13113	100	42.223525017206526	1
2025-5-20 11:27:15.580	WT901BLE68(76B4B30218CB)	0.042	0.211	0.98	1.648	-1.831	-1.526	12.91	-2.32	-46.82	-20.675	0.267	-55.508	0.92447	0.09283	-0.05655	-0.3653	24.4	13113	100	42.223525017206526	1
2025-5-20 11:27:15.580	WT901BLE68(76B4B30218CB)	0.042	0.211	0.98	1.648	-1.831	-1.526	12.91	-2.33	-46.86	-20.675	0.267	-55.508	0.92447	0.09283	-0.05655	-0.3653	24.4	13113	100	42.223525017206526	1
2025-5-20 11:27:15.580	WT901BLE68(76B4B30218CB)	0.042	0.211	0.98	1.648	-1.831	-1.526	12.92	-2.33	-46.9	-20.675	0.267	-55.508	0.92447	0.09283	-0.05655	-0.3653	24.4	13113	100	42.223525017206526	1
